time_tick,gyr_X_value,gyr_Y_value,gyr_Z_value0.011571,0.460689,0.376395,0.2911660.051549,0.249604,0.237719,0.2805740.081548,-0.221097,-0.389293,-0.0929290.111516,-0.161321,-0.124132,-0.0451110.151494,0.067253,0.318288,0.0271130.181493,-0.063371,0.043453,-0.1066410.211409,-0.270034,-0.069633,-0.1067830.251387,0.043279,0.117175,0.044750.281386,0.005839,0.094877,0.0248580.311354,-0.184665,-0.049612,-0.0743390.351332,-0.080507,-0.030301,0.0540070.381331,-0.13108,0.107287,0.0500580.411299,-0.141183,0.009232,0.0252470.451277,-0.127778,-0.148365,0.0444850.481276,-0.06234,0.02813,0.0385350.511275,-0.167097,0.022918,-0.0344460.551253,-0.120357,-0.099522,0.0184790.581221,-0.187257,-0.05668,0.0089290.61122,-0.152637,-0.073048,-0.0455410.651198,-0.087034,-0.011233,0.02510.681166,-0.132894,0.04095,-0.018770.711165,-0.150644,-0.033815,-0.0821130.751143,-0.142708,-0.015483,-0.0246930.781111,-0.141724,0.014222,-0.0494550.81111,-0.166163,0.104669,-0.090530.851088,-0.177868,-0.012192,-0.0362570.881056,-0.169201,0.061199,-0.0496540.911055,-0.034084,-0.01796,0.0003230.951033,-0.202063,-0.002368,-0.0063290.981001,-0.270928,0.08351,-0.1569911.011,-0.176175,0.059807,-0.1285391.050978,-0.016655,-0.45947,0.1240651.080946,-0.247632,-0.308384,-0.1253881.110945,-0.272593,0.125664,-0.2575651.150923,0.182172,-0.146147,0.1184851.180892,0.288875,-0.519617,0.0630871.210851,0.095865,-0.264085,-0.135091.25083,-0.012005,0.470889,0.0189431.280828,0.16971,0.279412,0.2401711.310796,0.153328,-0.413726,-0.1993561.350775,0.267491,0.677934,-0.0961561.380773,0.41554,1.08112,0.1741421.410741,0.280139,0.538814,0.2397511.45072,0.137577,-0.000126,-0.3698321.480718,-0.700487,-0.246742,-1.2838831.510688,-1.130972,-0.367519,-1.7808641.550666,-1.434771,-0.508877,-0.8234471.580664,1.085958,0.14298,0.1326451.610633,1.045501,0.946565,-0.2571471.650611,0.074304,-1.055066,0.6282881.680609,-0.332126,-0.760844,0.307271.710577,-0.054408,-0.619892,0.412411.750556,0.66892,-0.554914,0.8559191.780554,0.623265,-0.762342,1.1051931.810522,0.035402,0.283181,0.4766221.850501,0.650701,0.190317,1.4776491.880499,0.72177,-0.522181,0.3721761.910467,0.133236,-0.750891,0.1179481.950446,0.825623,0.015773,-0.2137631.980444,2.334642,0.641332,0.1038622.010443,0.241963,0.455078,0.2928562.05042,0.488372,0.560581,0.0666992.08039,1.572003,1.055445,0.2895252.110388,-0.680403,0.535121,-0.5335712.150365,-0.855846,0.828333,-0.3907912.180335,0.665268,1.074653,-0.55042.210317,0.446909,0.823878,-0.6273142.250295,-1.192099,0.573877,-0.4499572.280263,-1.901878,-0.195711,-0.310132.310262,-1.065687,-1.405829,-0.5179792.35024,0.652665,-0.857965,-0.4633352.380208,0.429964,0.829747,-0.0523262.410207,0.502885,0.76647,-0.0810572.450185,1.654165,-0.565679,0.1049312.480153,0.083449,0.469083,0.4152312.510152,-0.604162,1.463092,0.548142.55013,0.430913,-0.425645,0.9565382.580098,-0.540531,-1.498174,0.5134112.610097,-0.180801,-1.241639,0.5830982.650075,0.276915,-0.671653,1.5224382.680043,0.989997,-0.172817,1.0998152.710042,0.207448,-0.096251,-0.3641662.75002,0.826532,0.483513,-0.1724672.780019,0.873347,0.522039,0.3827232.809987,-0.382974,-0.235117,-0.7715922.849965,-0.764452,0.925475,-0.7269612.879964,-0.616251,1.834427,-0.2503122.909932,-0.680036,1.192548,-0.9395622.94991,-1.978351,0.53307,-0.7887632.979909,-1.901181,-0.40955,-0.2573333.009877,-2.258135,-1.375629,0.0974773.049855,-2.100856,-1.513236,-0.2735683.079854,-0.068358,-0.709825,0.2958263.109822,1.787104,0.400919,0.3614983.1498,0.575338,0.747351,0.2333543.179799,-0.213982,0.284936,0.3958583.209737,0.628833,0.921422,0.6221593.249715,1.524976,-1.304033,1.8061213.279714,0.115677,-1.880839,1.2934443.309682,-0.636162,-1.38889,1.0379283.34966,0.794502,-0.175963,0.6923863.379659,1.014721,0.548413,0.2238743.409627,-0.176891,-0.22438,-0.0890753.449605,0.539103,-0.110418,0.3455743.479604,1.173826,0.604904,0.1468363.509572,-1.407893,1.203543,-0.6028073.54955,0.728601,1.199514,-0.6711533.579549,0.819904,1.796122,-0.5459893.609548,-3.012197,1.12274,-1.8370543.649526,-0.97386,-1.240657,-1.8242693.679494,0.856011,-0.122386,-1.0609053.709493,-0.134227,0.750669,-1.8150223.749471,-0.29541,0.362413,-1.8581583.779439,0.243269,-0.312809,-1.5851553.809438,0.114123,-0.407325,-0.4690563.849416,0.544694,0.052326,0.3048593.879384,1.659573,-0.209598,0.6590423.919362,3.209393,-2.727641,1.8149033.949361,3.165147,-0.90435,1.2863013.979329,1.248023,-0.114369,1.312354.019308,1.220749,-1.54515,1.9002794.049306,1.126179,-1.935171,2.2354574.079275,0.126203,-1.12745,0.9208114.119253,0.823933,2.203804,-0.4626974.149251,1.217043,0.171531,0.4453084.17922,0.044469,0.817828,0.0128344.21915,-2.776374,2.202939,-0.3872314.249148,-0.924569,0.788693,-0.0359774.279116,-1.984299,2.319238,-1.0122314.319095,-2.009793,5.010096,-1.1516914.359103,-2.005482,3.523509,-0.8632564.379092,-1.99471,2.502433,-0.7852754.419069,-0.870729,2.223953,-0.7681114.449039,2.016281,1.762323,-0.7763694.479037,2.12386,-0.219443,-0.3764.519014,1.936621,-2.461814,-0.1779164.548984,2.023204,-2.845358,-0.3600614.578982,3.385532,-3.90156,-0.6605124.618959,0.489953,-5.767308,0.4447084.658938,-0.476322,-3.079581,1.3216954.678927,0.795302,-1.485447,1.2803184.718905,1.520972,-0.379906,1.2573574.748874,0.633562,0.247479,1.148784.778872,-0.319836,0.976483,0.8403414.81885,-0.829402,0.224515,0.5895894.848819,-1.721735,1.130403,0.8277594.878817,-2.463806,2.821447,0.3125484.918795,-3.071446,1.030753,-0.3320244.948764,-4.045095,2.771386,0.0091514.978763,-3.798889,5.618938,-0.5532585.01874,-1.754432,5.264023,-0.1085975.048709,-2.429104,2.640178,0.0630435.078708,-0.954632,1.443724,-0.5292495.118685,1.801308,2.250668,-2.0321765.148684,2.173243,1.125648,-1.5212825.178653,1.797665,-1.633808,-1.3822855.218615,2.321138,-3.462525,-2.3101785.248614,5.338118,-4.930259,-3.5095295.278582,5.294854,-6.297628,-2.1038465.31856,0.41992,-5.035503,1.110565.348559,3.227156,-0.682287,1.2266955.378527,3.144258,-1.071531,1.2738015.418505,1.464087,-2.551678,0.9389865.448504,0.729747,-1.237772,0.6420225.478472,-0.721923,-0.083883,0.3224995.51845,-3.132931,0.401348,0.5605015.548449,-3.125192,1.563561,1.3272355.578417,-3.600934,1.632178,-0.1938555.618395,-5.449973,1.471565,0.0053315.648394,-5.058309,6.244794,0.0645125.678362,-3.005733,7.211512,0.9664435.71834,-3.753777,1.714637,0.9391855.758318,-1.085127,1.375562,-0.8864195.778307,0.943372,2.500913,-1.4319555.818285,1.825398,0.498051,-1.6735935.848284,1.332027,-2.332422,-2.0400835.878252,2.256439,-3.685138,-2.6100235.918261,5.651902,-1.985033,-2.9007675.948229,3.511576,-5.258757,-2.4964055.978228,0.880248,-6.719669,0.0582016.018206,3.363874,-1.78034,1.1221526.058184,2.836432,-1.671673,1.3418656.078173,2.071524,-2.132091,1.4978186.118151,0.683998,-0.930016,1.0602446.148119,-1.051439,0.387913,-0.4610796.178118,-2.606907,0.509229,-1.2320386.218045,-3.838977,0.923795,1.4383796.248013,-3.012182,2.628555,0.0087626.278012,-5.234393,1.217346,-0.1912976.31799,-4.786463,4.872706,0.9575466.347958,-2.386409,8.18254,1.7152186.377957,-2.642473,3.849513,2.0925286.417935,-2.977428,0.599175,0.6456266.457913,0.499824,2.558131,-1.9120626.477902,1.146024,2.486386,-2.334316.51788,1.643176,-1.290327,-2.5850766.547849,1.706945,-3.650431,-3.4563116.577847,3.07696,-2.267235,-3.8891926.617825,2.039129,-5.448038,-2.3961596.647794,0.034671,-6.265246,0.3656246.677792,2.105277,-2.967131,0.5790716.71777,1.814886,-1.871543,0.4658156.747769,0.986394,-2.242072,0.8913176.777737,0.284417,-1.616048,1.1262596.817715,-0.376684,0.501344,0.2884736.847714,-1.541836,0.340097,-0.18926.877683,-3.113356,-0.331132,1.1098786.917661,-2.569525,1.001922,0.120886.947659,-3.84558,1.348547,0.2106946.977628,-5.348852,3.842721,0.8841037.017606,-3.456126,6.954145,1.569277.047604,-2.572604,5.010411,1.215187.077573,-2.486857,2.600276,0.6055337.117551,-0.875373,1.606542,-0.9554447.147549,0.563019,1.595903,-1.9606797.177518,0.985724,0.180351,-2.0580327.217466,1.454569,-3.19173,-2.590077.247465,2.157659,-3.955072,-3.74887.277433,3.56098,-4.419551,-4.1093727.317411,0.693806,-5.968138,0.5026827.34741,1.755243,-2.579771,1.3578537.377378,3.140584,-0.669442,1.1598787.417356,2.291385,-2.165678,1.3421827.447355,1.130782,-2.22175,1.2807687.477323,0.251754,-0.213726,0.7831447.517331,-1.517089,-0.288787,-0.2774337.5473,-3.955028,-1.105758,0.2488657.577298,-3.213879,1.054384,1.2259367.617277,-3.95587,0.639655,-0.2676627.647245,-5.883732,0.82945,2.4477617.677244,-4.137362,7.093442,1.823747.717222,-2.895645,5.336266,2.0785417.74719,-2.52858,3.31175,1.5124497.777189,-1.503827,2.50316,-0.4007987.817167,-0.420127,1.258208,-2.8967127.847135,0.784118,-0.785715,-2.9670277.877134,1.838952,-2.927565,-3.6352547.917112,3.221634,-3.541897,-5.1210017.94708,3.492909,-4.190342,-3.6531067.977079,0.25855,-6.545378,-0.8420658.017057,2.212146,-2.69175,1.5172268.047025,3.407958,-1.196971,1.3372788.077024,2.57003,-2.196559,1.3686028.117002,1.121043,-2.288766,1.2898578.14697,0.587845,-0.530515,0.5233838.176969,-0.23776,-0.096555,-0.6123658.216908,-3.46711,-1.6416,0.2075038.246876,-3.092402,-0.03999,1.2142518.276875,-2.644026,1.590515,-0.7385858.316853,-5.668992,2.783612,2.3679498.356831,-3.672535,7.97392,1.7175078.37682,-2.710099,6.158392,1.7609588.416798,-2.717559,2.194441,1.084528.446797,-1.341488,2.264637,-0.4735148.476765,0.272808,2.698594,-2.6222618.516743,0.74457,-0.269395,-3.5253438.546742,0.895932,-3.226028,-3.6309938.57671,1.868645,-4.416713,-4.3592158.616688,3.916517,-2.043175,-4.8981988.646687,1.260322,-5.571326,-2.1263848.676655,-0.109102,-6.324498,0.7882018.716633,2.721024,-2.328546,1.2919528.746632,2.581182,-1.753342,0.9428218.7766,0.987388,-2.428101,0.970578.816578,-0.517492,-1.048491,0.8213888.846577,-1.378557,0.416937,-0.0018798.876545,-2.585067,0.521001,-0.0226378.916523,-2.847208,0.262283,1.8698368.946522,-2.80478,0.337849,-0.4552528.97649,-4.667221,1.354935,1.0888089.016499,-4.52724,6.862337,2.4025689.046467,-2.377368,6.997427,2.4931099.076466,-2.06531,3.096452,2.1461659.116444,-2.205276,0.695954,-0.0751189.146412,-0.548871,1.208545,-2.4593569.176411,0.850442,0.493196,-2.952439.216365,1.206903,-2.822093,-3.0426679.246333,1.517173,-4.044674,-3.907789.276332,3.534731,-2.958365,-4.6182989.31631,1.042541,-5.891057,-2.3777219.346278,-0.496888,-5.41549,1.2464869.376277,1.450867,-1.931003,1.5776219.416255,1.511987,-0.618637,1.4490619.446224,0.686037,-1.067792,1.6831359.476222,0.430963,-0.838585,1.7287019.5162,-0.568607,-0.005336,0.1717269.546169,-2.1394,-0.49511,-0.7940449.576167,-3.511667,-0.712032,1.0584029.616145,-2.159334,1.496995,-0.7107059.646114,-3.55036,2.992711,0.6618269.676112,-4.425724,5.583271,2.5107779.71609,-2.326944,4.666163,2.0985369.746089,-2.072039,2.38207,1.7280779.776058,-1.855376,1.572628,0.5179889.816036,0.389737,1.942907,-1.6967139.846034,1.383613,0.758251,-2.0144279.876003,1.187729,-1.940315,-1.9024829.915981,1.823418,-4.19851,-2.5483159.945979,4.20662,-3.434979,-3.4024459.975948,5.079398,-5.053705,-2.78823210.015926,1.041184,-5.334469,-0.12159110.045924,2.53943,-2.258397,0.14895710.075893,1.828056,-1.807806,0.20606310.115871,1.257665,-2.334101,0.81370110.14587,0.827408,-0.685839,0.78561910.185848,0.95115,-0.054635,0.11353810.215757,-1.072598,-2.171928,0.34433310.245756,-4.045211,-1.726336,0.71161210.285734,-3.341711,2.17003,0.51962310.315702,-3.609896,0.656992,1.06256910.345701,-5.837516,2.031071,0.66249810.385679,-2.066337,6.524945,0.51943610.415677,-1.779943,4.605024,0.63248210.445646,-3.307009,1.184647,-0.20066910.485624,-0.373416,1.366838,-1.67750610.515623,1.648854,1.332636,-1.22445510.545591,1.981545,-0.784186,-1.50912910.585569,1.80205,-2.746259,-1.26198410.615568,4.388431,-2.271751,-2.24841310.645536,4.645514,-4.24149,-3.75724610.685514,0.699513,-6.816897,-0.17900510.715513,1.922963,-1.829069,0.53849910.745481,3.127854,-0.154376,0.34968810.785459,1.410046,-1.735782,0.43290910.815458,0.931315,-1.460165,0.404710.845426,0.825602,-0.366611,0.24990310.885404,-1.142178,-1.749805,-0.34644610.915403,-2.500863,-0.800882,0.49239210.945371,-1.884246,1.822646,1.37281910.985349,-3.253586,1.326594,0.6203811.015348,-5.057064,1.168462,0.93982911.045316,-3.686204,5.035663,0.57582511.085294,-2.473507,4.263401,0.74661611.115293,-2.29326,2.000539,0.76148211.145292,-1.807749,3.502714,0.13954611.18527,0.852799,4.169757,-0.83060111.215202,0.869225,0.681304,-0.67125511.245201,-0.017109,-2.637855,-1.60258211.285179,-0.077424,-4.283889,-1.776611.315147,3.128513,-3.405331,-2.56681711.345146,1.592408,-5.522778,-2.38459111.385124,1.200796,-4.59427,0.96639611.415092,2.844056,-1.930291,0.92028711.445091,2.728863,-1.217755,0.81639311.485069,2.024088,-1.91442,1.30658411.515037,1.91254,-1.550012,1.00260611.545036,1.138964,-1.445348,-0.12776611.585014,-1.308484,-1.983601,-0.1528411.614982,-2.37133,-0.507746,1.60949111.644981,-2.310263,1.231795,0.55932711.684959,-3.531952,0.864743,1.15018411.714927,-4.848889,4.146644,1.20119411.744926,-3.328989,7.054277,0.75074211.784904,-2.729422,3.722442,0.76168311.814903,-2.620752,2.542628,0.21523711.844871,-1.051272,3.66878,-1.28883611.884849,0.375657,3.023639,-2.24552611.914848,0.588812,-0.408232,-2.10796111.944816,0.762774,-3.786292,-2.1188511.984794,2.793929,-4.820852,-3.13037612.014793,4.640362,-3.983761,-4.00021512.044761,1.410396,-5.575248,-1.67598312.084739,1.158168,-3.251638,1.30965612.114738,3.155282,-0.548042,0.93488612.144706,2.229125,-1.376761,1.45609212.184684,1.497283,-2.302545,1.42120912.214665,1.221014,-1.078685,0.7181112.244633,0.213664,-0.261945,-0.02269112.284612,-1.640085,-1.230933,0.64230712.31461,-2.336215,-0.721515,1.00395712.344579,-2.735825,0.249455,-0.8603112.384557,-4.739957,1.008762,2.19047812.414555,-4.80931,5.995675,2.20261512.444554,-3.109658,7.489962,2.15001312.484532,-2.966546,3.268388,2.11147312.5145,-2.496619,2.54197,0.89189312.544499,-0.869935,2.682107,-1.45099312.584477,-0.43715,0.320917,-2.45226712.614445,0.622823,-2.193647,-2.39772612.644444,1.670269,-3.580651,-3.13342712.684422,3.652703,-2.867911,-4.52469512.714391,3.30579,-5.516938,-3.02133712.744389,0.9681,-6.760464,-0.40171812.784367,3.315832,-1.30629,0.15886312.814336,3.366006,-1.018989,0.61830612.844334,3.089429,-2.951936,1.09190612.884312,2.390443,-2.741607,0.78700412.914281,0.248308,-0.978238,0.11687812.944279,-1.869197,-0.139247,0.19487112.984258,-3.214389,-0.349211,1.25670813.014226,-3.705428,1.481328,0.2643913.044225,-5.001965,1.981771,0.66996913.084203,-4.969777,4.551885,2.61537813.114201,-3.197284,6.686394,2.18851113.14417,-3.015126,3.383125,1.53167913.184148,-2.874969,1.665373,0.75974813.21411,-0.591539,3.124671,-0.82970913.244079,0.26767,2.230045,-2.37552413.284057,0.471631,-2.242669,-2.54585613.314055,1.449641,-4.186465,-3.06047113.344024,2.743995,-3.09299,-3.80543413.384002,3.50449,-3.683126,-4.76310813.414001,0.073911,-6.186875,-1.10719413.443969,0.924325,-2.957935,1.03568513.483947,2.521408,0.037964,0.62787913.513946,1.529688,-1.804581,1.110113.543914,0.186293,-2.542127,1.38333413.583892,0.621433,-0.188932,0.01823613.613891,-0.145283,-0.115866,-0.32153113.643859,-2.381282,-1.751834,0.87004813.683837,-2.187514,0.031068,1.05296913.713836,-2.926682,1.41118,0.7896713.743804,-4.172419,2.755814,3.03826713.783813,-3.537738,6.142298,2.84300913.813781,-2.611052,4.283564,2.24910813.84378,-3.01353,2.458616,1.75832313.883758,-1.496381,2.615141,-0.59581213.913726,-0.292231,1.533778,-2.13254213.943725,0.525619,-0.878851,-2.37289213.983703,1.616472,-3.625865,-3.05492414.013671,3.159174,-3.95548,-3.60821314.04367,4.923876,-2.39741,-4.80299714.083648,0.547741,-6.906082,-2.37698314.113616,0.52148,-5.009892,0.74606914.143615,2.223588,-1.092496,0.72225614.183593,1.280482,-1.35762,1.26813914.213532,0.663037,-1.829062,1.24415514.243531,0.998315,-0.724562,0.62602714.283509,0.153445,0.26142,-0.22040914.313477,-1.456991,-0.484227,0.60157114.343476,-2.525649,-1.060466,1.70941614.383454,-2.760461,0.972372,-0.23304414.413453,-3.401888,2.190805,2.70008814.443421,-4.650127,4.125427,3.05306714.483399,-2.157492,5.624104,2.12349614.513398,-2.825707,2.342405,1.90748614.543366,-3.051551,1.798068,0.96880214.583344,-0.213188,2.402607,-1.64347714.613343,0.274944,0.658486,-2.5035414.643311,0.523601,-2.181745,-2.44953314.683289,1.696639,-3.898234,-3.15253114.713288,3.276388,-2.59526,-3.93584314.743256,3.741556,-2.962949,-4.96714614.783234,-0.476108,-6.355421,-0.50447814.813233,1.357715,-2.030508,0.6839414.843201,2.844032,-0.146349,0.210414.883179,2.091589,-2.493422,0.51373514.913178,1.466034,-2.727372,0.71415414.943146,0.498216,-1.476409,0.64615814.983124,-0.288429,-0.375626,-0.43079515.013123,-2.470996,-1.342735,1.04775315.043122,-2.816855,-0.38281,1.97049515.0831,-3.127278,1.045141,0.44151815.113068,-4.27081,3.120408,2.78754915.143067,-3.779776,6.887477,2.53797215.183045,-2.294376,4.674712,1.8998915.213013,-2.851969,2.251929,1.42403815.242977,-1.961474,2.767333,0.12136715.282955,0.328316,2.545678,-2.23528815.312923,0.309825,-0.141203,-2.43481615.342922,0.495861,-2.910765,-2.82686115.3829,1.674817,-4.861364,-3.4801415.412868,3.825807,-2.645804,-4.94118615.442867,2.063039,-3.363552,-3.74523415.482845,-0.006705,-5.483444,0.57440515.512814,2.2558,-2.939987,0.36363115.542812,2.579666,-1.506208,0.48017615.58279,1.480021,-2.340486,0.55224715.612759,0.713842,-2.11406,0.2113315.642757,0.382092,-1.187855,0.05050415.682735,-1.64957,-1.591982,0.39865915.712734,-2.743137,-0.715153,1.32296815.742702,-1.768095,2.046953,0.44782115.78268,-3.776767,2.566716,1.86734515.812679,-4.217959,3.957454,2.34792215.842647,-2.315215,6.071968,1.8607515.882626,-1.999981,3.104322,2.06360915.912624,-2.152998,2.499641,1.50897715.952602,0.248606,2.308862,-0.98079615.982571,0.324058,0.095561,-2.35026516.012569,0.407958,-2.588368,-2.50771616.052547,1.70104,-4.156414,-3.00982216.082516,4.1054,-2.809604,-4.86684316.112514,3.195566,-4.839331,-4.71967816.152492,0.07095,-6.093154,0.30120116.182461,2.404448,-1.772095,0.63460416.21246,2.42517,-0.817286,0.53454416.252387,1.499574,-2.459125,0.94876316.282385,0.68653,-2.375184,0.37983716.312354,0.23608,-1.029743,-0.21440616.352332,-1.146564,-0.835623,0.90754916.38233,-2.076887,-0.319832,2.22299116.412299,-1.717211,1.121649,1.72167416.442297,-2.214551,0.595034,1.15023316.482275,-4.520867,2.44053,2.94122416.512244,-2.882698,6.451828,2.42639116.552222,-2.217258,3.094823,2.58542316.582221,-2.783951,0.91062,1.63209916.612189,-1.094743,2.365052,0.05877216.652167,0.204845,2.433462,-2.20069716.682166,-0.143119,-0.610329,-2.49919616.712134,-0.034965,-3.198634,-3.15563416.752112,2.604458,-2.295066,-4.36210216.782111,3.365777,-1.833391,-4.71431316.812079,0.55914,-4.920579,-1.37002716.852057,1.871224,-3.97504,0.04283816.882056,2.587457,-2.10822,-0.04016816.912055,2.36412,-2.114533,0.23845316.952033,1.676304,-2.125401,0.25301416.982001,1.409007,-1.429267,0.14795217.012,0.17279,-1.00856,-0.29954717.051978,-2.152035,-0.843719,1.23745217.081946,-1.634621,0.48512,1.41024317.111945,-2.455685,1.473576,0.19138717.151923,-3.597169,3.215524,3.25457417.191901,-2.430232,6.291735,3.01068717.21189,-1.68977,4.703851,2.55019317.251835,-2.655,1.512425,1.52874717.281803,-1.379507,2.982562,0.21466517.311802,0.151787,3.536521,-1.14731317.35178,-0.264976,-0.137677,-1.95805217.381748,-0.252055,-2.604992,-2.32686517.411747,0.605821,-3.330327,-2.7091317.451725,2.229012,-2.28679,-5.23795717.481724,1.31007,-4.486219,-4.23719817.511692,0.509468,-4.077618,-1.30459217.55167,2.54139,-1.08586,-0.57343317.581669,2.427679,-1.971073,-0.71444817.611637,1.839023,-2.847919,-0.39208817.651615,0.817272,-1.455403,-0.06190717.681614,0.643336,-0.450918,0.51287917.711582,-0.753991,-0.762734,0.90696117.75156,-2.195393,-0.043287,2.73678417.781559,-1.853785,1.638657,1.69509617.811527,-3.726888,0.763587,2.85550317.851505,-4.340909,3.224501,3.60103317.881504,-3.103203,6.561349,2.88653217.911472,-2.836886,4.276815,2.19387617.95145,-3.231988,1.660633,0.79056317.981449,-1.505071,2.795514,-0.99071718.011448,-0.380581,2.125427,-1.85914418.051426,-0.717205,-1.551414,-2.47297218.081394,-0.455063,-3.005003,-3.12382118.111393,0.126713,-3.806333,-3.14131618.151371,3.273394,-3.982548,-5.95213118.181339,1.175229,-5.10362,-3.3496918.211338,-0.057964,-4.062873,0.01045518.251302,1.731857,-1.835119,0.43506918.28127,1.579298,-2.240963,0.98508918.311269,1.559516,-2.565831,1.19563218.351247,1.127167,-1.623657,0.93924318.381215,-0.396598,-0.696995,0.47035118.411214,-1.936122,-1.038002,1.34117718.451192,-1.988607,0.093452,2.31541118.481191,-2.232705,2.275287,0.33988718.511159,-3.314064,2.008892,3.29936718.551137,-4.52134,5.349071,2.91626318.581136,-1.704639,5.852349,2.14807818.611104,-1.951104,3.091543,1.63889718.651082,-2.736515,1.775213,-0.2562518.681081,-0.366586,2.629641,-2.21819718.711049,0.680379,1.483596,-3.13276718.751027,0.608775,-2.02944,-3.0751518.781026,1.436455,-4.082739,-3.45157718.810994,2.604419,-4.175137,-4.18376618.850972,3.528499,-3.949631,-5.26471918.880971,0.971315,-5.200131,-1.56755518.910939,1.590632,-4.160425,0.0009818.950948,2.306343,-2.822332,-0.18473418.980916,1.396555,-3.122872,0.56816419.010915,0.790058,-2.730763,0.74459319.050893,-0.130606,-1.077431,-0.03388119.080861,-1.397858,-0.389938,0.07573319.11086,-2.544966,-0.535045,2.00426119.150838,-2.654067,0.276573,2.38386319.180806,-3.585614,-0.297598,0.78264219.210805,-3.700243,1.24178,3.34778219.250732,-4.883609,6.872668,2.93993819.2807,-2.323101,6.842061,2.57290419.310699,-2.594234,3.774734,2.32322319.350677,-2.087182,3.076135,0.22535419.380676,-0.444565,2.081786,-2.14859819.410644,-0.068732,-0.493342,-2.70208519.450622,0.209062,-3.587459,-3.18074419.480621,1.3507,-4.127015,-3.66623919.510589,2.971007,-3.287086,-5.06178419.550567,1.407124,-6.057626,-3.30650319.580566,-0.776339,-5.294162,-0.21101919.610534,1.445367,-1.465649,-0.09091219.650512,1.926235,-1.517224,0.25881119.680511,1.200951,-3.194077,0.88978419.710479,0.848077,-2.906616,1.47839419.750457,-0.652903,-0.373077,0.73281719.780456,-1.177662,0.347867,1.16233519.810455,-1.999171,-0.054804,2.96405119.850433,-3.19509,0.244468,1.13802419.880401,-1.897242,3.195295,2.96370119.9104,-4.387341,4.687291,3.66287919.950378,-2.235815,6.51057,1.89116219.980346,-1.658126,3.400795,1.99869620.010345,-3.168888,1.390229,1.11117220.050323,-0.420672,1.893015,-2.41825420.080291,0.531926,0.808744,-3.18556120.11029,0.437963,-2.047209,-3.16047120.150268,1.553935,-4.31823,-3.8376720.180237,4.056349,-2.658817,-5.95357520.210235,1.810403,-4.474087,-2.73604920.250172,0.776415,-5.146722,0.63794520.280171,3.31811,-3.095081,0.03463420.310139,3.111166,-3.031695,0.19744120.350117,1.430781,-2.880362,0.76456220.380116,0.899516,-1.168775,0.27896220.410084,0.120779,-0.12768,-0.56505220.450062,-2.098222,-1.516501,1.36058920.480061,-1.913741,-0.021152,2.71372320.51003,-2.591894,1.559346,1.13017620.550008,-3.335494,1.088729,3.28823820.580006,-5.001208,3.408767,3.22144420.610005,-2.964705,6.604064,2.33503920.649983,-3.143653,2.365615,2.03174220.679951,-3.664591,1.274624,0.98998420.70995,-1.180669,2.691553,-1.06640520.749928,-0.352921,1.364978,-2.77521520.779896,-0.308645,-1.094492,-2.79332520.809895,0.626642,-2.559118,-3.13528620.849873,2.697981,-2.925725,-4.77817220.879842,2.843713,-3.8441,-4.47343920.90984,-0.035883,-6.083472,-0.48335320.949818,2.537595,-3.401125,0.16285120.979817,3.258883,-2.498631,0.21930121.009785,2.928264,-3.121895,0.80500221.049763,2.136759,-2.395725,0.96289121.079762,1.091053,-0.412579,0.22530821.11974,-0.998381,-0.523381,-0.32548621.149708,-2.651738,-0.899418,1.40597421.179707,-1.942178,1.662099,1.37967421.219667,-3.056354,1.580976,1.7096621.249636,-3.950421,2.147715,3.72639321.279634,-3.963107,5.538043,2.83388821.319612,-2.057357,3.399415,2.49692321.349611,-3.141335,1.698506,1.94818721.379579,-2.19253,3.069085,0.21639121.409578,-0.232352,2.989959,-1.784321.449556,-0.565081,-0.82379,-2.52299321.479524,-0.127269,-2.99556,-3.08410821.509523,1.438606,-3.804488,-3.15393521.549501,4.022497,-1.710985,-5.52847621.57947,1.682208,-5.519696,-3.03151721.619448,0.82276,-4.823459,0.56806921.649446,3.324533,-1.561692,0.44872921.679445,3.138382,-2.333167,0.66140121.709413,2.251116,-3.296871,1.04473421.749391,0.538158,-0.926345,0.32288521.77939,-0.874183,0.479666,-0.26007921.819368,-2.68219,-0.919697,0.8974921.849336,-2.214782,1.041723,2.18690121.879335,-2.540719,2.964852,1.33377721.909304,-2.984133,2.310591,3.20141421.949282,-4.158119,4.213754,3.26194821.97928,-2.539108,5.347537,2.54901722.019258,-2.903409,1.155354,2.17600122.049257,-2.68145,1.662861,0.62109322.079225,-0.613472,2.445009,-1.59144222.119203,0.053707,-0.240595,-2.51478722.149202,0.116503,-2.448445,-3.16208722.17917,1.352905,-3.422144,-3.70672622.219148,3.904238,-2.551301,-5.87246922.249112,1.831596,-4.028748,-4.09524422.279111,-0.035162,-4.73012,-0.31961522.319089,2.028935,-2.627884,0.16095222.349057,2.000221,-2.862638,0.27166822.379056,1.320409,-2.967984,0.8330322.419034,1.096524,-1.638292,0.97152222.449002,0.689403,-0.605668,-0.22009122.479001,-0.47005,-0.93502,0.28693722.518979,-1.904038,-0.83924,2.69419122.548947,-2.095873,0.903554,0.94993122.578946,-2.398253,1.582881,2.27560322.618924,-5.205527,3.376375,3.63882222.648923,-3.117252,6.457961,2.62071422.678891,-2.147954,4.412053,2.12717922.718869,-3.158807,1.766714,1.00056522.748868,-1.290041,2.285259,-1.28142722.778836,-0.050503,2.076257,-2.76621322.818814,0.254739,-1.136482,-3.07240222.848813,0.901022,-3.408981,-3.57418522.878812,1.947725,-3.664764,-3.80954222.91879,3.566595,-2.674143,-5.32674122.948758,0.725623,-5.490592,-2.43762822.978757,1.514374,-4.12127,-0.83196423.018735,2.618455,-3.034162,-0.57314923.048703,2.072183,-3.626429,0.30578523.078702,1.594702,-3.225917,0.81210623.11868,0.059188,-1.717265,0.20132323.148679,-1.437022,-0.926164,-0.07257223.178647,-2.115368,-1.084339,2.70146323.218625,-3.885964,1.371141,3.0470423.248587,-3.415965,3.118279,1.94015323.278555,-4.007599,3.179,3.97819623.318533,-4.256092,5.304242,2.43725723.348532,-2.245416,4.910692,2.07918723.3785,-3.122715,2.167212,1.5136423.418509,-2.229406,2.107376,-0.98795323.448477,-0.314564,2.239097,-3.03797123.478476,0.124891,0.081066,-3.38586223.518454,0.30328,-3.575152,-3.66776323.548422,1.067456,-4.684253,-3.74370123.578421,3.356581,-3.885811,-5.6791823.618399,1.151351,-5.534629,-2.35645723.648367,-0.639082,-4.559423,0.59126323.678366,1.893734,-2.380415,0.58865323.718344,1.869596,-2.505306,0.97479223.748343,1.211442,-2.894064,1.29708523.778311,0.593815,-1.97508,1.15603123.818289,-0.952669,-0.734004,-0.22602923.848288,-2.021604,-0.658913,1.24601323.878256,-2.646425,0.523666,2.86197623.918234,-1.614299,2.412932,-0.20217523.948233,-3.448712,2.534027,2.24657523.978232,-5.535927,4.720365,1.89511524.01821,-0.79899,6.135106,0.99213224.048178,-1.035098,2.790436,1.15073524.078177,-2.328609,1.525871,0.09855724.118155,0.932638,2.385897,-1.67530324.148123,1.723541,1.199809,-2.26388424.178122,1.530069,-1.645899,-2.18605224.2181,1.394597,-4.299358,-2.40544924.248061,2.877742,-3.454604,-3.80453624.278029,2.772009,-5.905838,-3.55520724.318007,0.165799,-6.393164,-0.94829124.348006,1.206337,-4.741509,-0.49814624.377974,0.165425,-5.566093,-0.11180324.417983,-2.594165,-3.716793,0.91899824.447951,-3.476149,-2.165802,1.09681624.47795,-2.96945,-2.338007,2.11503924.517928,-3.94381,0.504481,1.41009824.547896,-4.316819,2.071188,0.82977124.577895,-4.963979,2.057534,0.73745924.617873,-3.591815,-0.195486,-0.66450124.647871,-4.523552,2.156058,-2.26094624.67784,-2.222891,2.593929,-2.19697424.717818,-2.678476,-0.472044,-1.37896724.747817,-3.154435,-0.282997,-1.7062824.777785,-0.709173,0.977931,-1.32179824.817763,0.649941,-0.501846,-0.14384924.847762,-0.315952,-0.917644,0.26995324.87776,0.746208,-0.183891,0.77804724.917738,1.014599,-0.704854,1.23059524.947707,1.127123,-2.282151,1.81564524.977705,0.768324,-0.962672,1.68935925.017684,1.670069,-0.493236,1.77151625.047652,1.2591,-1.058323,1.25215125.077651,0.765601,-0.919051,0.7354425.117629,1.260747,0.279618,0.83572725.147627,0.049418,-0.587385,0.63239325.177596,-0.76509,-0.546611,0.17259925.217574,-0.461223,1.63682,-0.46729525.24754,-1.902833,0.948952,-0.84029425.277509,-1.906494,-1.193868,-0.59490525.317487,-2.223479,0.479522,-1.55394425.347485,0.568481,0.409284,-1.5187625.377484,-0.023047,0.102703,-1.56758825.417462,-1.297054,-1.748963,-1.011225.447431,0.486749,-1.249482,-0.99602425.477429,1.44177,0.746368,-1.05571925.517407,0.655735,0.198159,0.15595125.547376,0.714885,-0.404047,0.81720125.577374,1.63501,0.958438,0.79977325.617352,1.273689,-1.399266,1.94369425.647351,0.364442,-0.984267,1.7173625.677319,1.457896,-0.716745,1.37116125.717297,0.868711,-0.457173,1.22421725.747296,0.071526,-0.774855,1.11901125.777295,-0.005107,-0.245549,0.57147125.817273,0.329953,-0.065979,0.79120525.847241,-1.120968,-0.233319,0.34716225.87724,-1.276097,1.314553,-0.66090225.917218,-1.478443,1.20297,-0.7954825.947186,-2.017252,-1.399267,-0.66422125.977185,-3.393813,0.328364,-2.16073226.017163,0.503531,1.220166,-2.20180726.047162,-1.004688,0.187652,-1.36544726.07713,-1.431441,-1.126936,-1.36391226.117108,0.548587,-0.298888,-1.28294926.147107,0.465888,-0.099862,-0.92024326.177075,0.58017,-0.69367,0.00090826.217084,0.891816,-0.76631,0.47972826.247022,1.920592,-1.24296,1.08026426.277021,1.503677,-3.082407,2.07874826.316999,0.601102,-0.129561,1.82165426.346967,1.047767,-0.504823,2.15905626.376966,-0.099887,-1.321573,2.05846126.416944,0.191296,-0.536884,1.09843326.446943,0.653238,0.34379,1.03274926.476911,0.565611,-0.633008,1.15361226.516889,-0.67087,-0.2501,0.11972426.546888,-0.131652,1.67239,-0.77125726.576856,-1.337304,0.894853,-0.96889226.616865,-2.140869,1.369995,-2.1626726.646833,-1.318421,3.912393,-3.71906626.676832,0.264421,5.155606,-3.34887226.71681,-2.12642,2.735961,-2.72870926.746778,-1.614103,2.99515,-2.8710926.776777,1.581132,4.720556,-2.93584526.816755,2.925414,3.374116,-2.66761926.846754,2.563724,1.132873,-1.91283726.876722,2.37511,-0.566389,-1.73054226.9167,1.396065,-4.940607,-2.1883926.946699,3.960562,-6.10768,-1.623226.976667,1.353719,-1.821416,0.04985927.016675,2.122926,0.153517,1.31296327.046644,2.950544,-1.29318,1.06639827.076642,1.813681,-3.208553,1.79423727.116621,1.995838,-2.188194,2.20906327.146589,0.906228,0.103348,0.85607827.176588,-1.369439,0.054201,-0.6008227.216566,-3.884349,-0.888875,2.34713527.246531,-4.371901,1.494885,0.98905627.2765,-2.946919,2.593256,0.50680227.316478,-5.923943,5.542509,2.22178427.346476,-3.777547,7.318122,1.20885927.376445,-2.082276,6.168374,1.25926527.416453,-3.863423,2.096128,0.88147127.446422,-2.388971,1.261176,-1.02340427.47642,0.255212,2.107618,-2.8460127.516398,0.288327,-0.338531,-3.22576127.546367,0.664546,-2.821164,-3.34473827.576365,0.932845,-5.571061,-3.55071727.616343,4.444074,-4.569356,-4.37874927.646342,1.430249,-6.502491,-1.56568727.67631,-0.27412,-6.964558,1.3475127.716288,3.718581,-2.009289,1.46216927.746287,3.305411,-1.949684,1.77334927.776286,1.642284,-2.871068,1.60386127.816264,0.775337,-1.706521,0.42127527.846232,0.360428,-1.18227,-0.1478227.876231,-3.002712,-1.505313,0.39804427.916209,-2.376681,1.255598,1.05018827.946177,-2.989744,2.944389,0.15774227.976176,-5.251061,4.523769,1.55260428.016154,-4.647881,6.033543,1.30756228.046153,-3.467298,4.842311,0.65285928.076121,-3.089349,4.18995,0.17884128.116099,-2.307291,3.293828,-0.59319528.146098,-0.964132,1.904576,-2.01959128.176097,0.03909,0.688902,-3.06353228.216075,0.675744,-1.518963,-3.17747528.246003,1.07284,-3.500073,-3.30245428.285981,2.105156,-4.72179,-4.00730728.31598,3.174262,-5.597609,-3.08400528.345979,-0.060214,-5.655177,0.46718628.375947,1.925218,-2.612898,0.78648728.415925,2.912399,-1.876198,0.93443728.445924,2.339592,-2.986756,1.63926128.485902,1.38556,-2.247703,1.6678228.515901,-0.130458,-0.146118,0.53835528.545869,-0.690463,0.151011,0.01016428.585847,-2.744395,-1.88811,2.42402828.615846,-4.055306,-1.132702,1.49656728.645814,-2.494156,2.320665,0.47326528.685822,-5.683268,4.598022,3.43499428.715791,-4.561841,5.582767,2.50726928.745789,-3.398027,5.020708,2.01221928.785767,-4.162808,2.95659,0.81482528.815736,-2.652177,2.060703,-1.3415328.845735,-0.968203,1.515042,-3.37453328.885713,0.221227,-0.184219,-3.31507728.915711,0.674038,-2.435468,-3.53861128.94568,1.449984,-4.745518,-3.74429628.985658,3.861083,-5.322782,-5.49095729.015656,1.917851,-7.67047,-2.2017929.045655,0.505451,-6.288818,0.77492729.075623,4.067003,-1.549089,0.6333229.115601,3.476748,-2.690879,1.00993929.1456,1.567606,-3.682658,1.5292829.185578,-0.245106,-0.565714,1.61520629.215577,-0.566464,0.735854,0.39017129.245514,-1.275821,-0.631197,0.30193129.285492,-3.918907,-0.486464,2.51071729.315491,-3.4471,2.35173,1.26872129.345459,-3.260084,2.982426,2.66137829.385468,-5.857696,3.942132,3.31180129.415436,-3.96123,6.264591,2.17030229.445435,-3.610114,4.976216,1.39612229.485413,-4.273605,2.583226,0.10889329.515381,-2.494777,2.30512,-2.02050429.54538,-1.105461,1.934928,-3.44624829.585358,-0.032198,-0.81723,-3.63427229.615357,1.05326,-3.241166,-3.76935329.645325,1.733567,-5.166482,-4.00938729.685303,3.344357,-4.390668,-5.22519829.715302,1.559091,-5.467986,-1.60507629.745301,0.800955,-5.21563,0.96686129.785279,2.945182,-3.454246,0.80846229.815247,2.13441,-3.812955,1.03857529.845246,0.851787,-2.875077,1.3906729.885224,0.81846,0.152672,0.61192729.915223,0.001202,0.501059,-0.36215929.945191,-2.380039,-1.562979,0.94649529.985169,-3.767567,-0.691154,2.37274230.015168,-2.710145,1.961624,0.48034930.045166,-3.504861,2.962725,3.4916930.085144,-5.01629,5.529586,3.03925730.115113,-3.387381,5.355243,2.28165930.145111,-3.603933,3.652488,1.43052630.18509,-2.767197,2.51,-1.01251830.215088,-1.26144,2.320296,-3.16133130.245018,-0.522238,0.882569,-3.86187730.284996,-0.292372,-2.329562,-3.86898330.314994,0.595731,-4.517331,-3.77860230.344993,2.954289,-4.14382,-3.76140330.384971,3.420136,-4.877754,-4.52756730.414939,-1.306139,-6.717952,-0.43103130.444938,0.378673,-3.077568,0.9190730.484916,2.167614,-1.288643,0.86590230.514915,0.861187,-2.896251,1.66277930.544883,0.017152,-2.850931,1.94445430.584861,0.149278,-0.943238,0.93317230.61486,-0.025218,-0.519181,0.57149630.644859,-2.461689,-0.354715,2.39178730.684837,-3.537755,1.296002,2.30219930.714805,-2.459829,3.176472,1.1024130.744804,-4.149052,4.259135,3.88449730.784782,-4.120128,5.17925,2.48010630.814781,-2.544515,4.428613,2.12071930.844749,-3.209405,3.437257,1.54408430.884727,-2.46201,2.500437,-1.42800930.914726,-1.032,1.597141,-3.41426130.944725,-0.370905,-0.074139,-3.78515630.984703,0.482498,-2.528083,-3.9432631.014671,1.459513,-4.126634,-4.18631731.04467,3.520491,-3.487439,-5.98707331.084648,0.797768,-5.534784,-2.72143331.114646,-1.414345,-5.675574,0.81191431.144615,1.709471,-2.853407,0.62734731.184593,1.638768,-2.679756,1.04244431.214592,0.575065,-2.689584,1.4057531.244539,0.567902,-1.189607,1.01376231.284517,0.242049,-0.297108,0.2355531.314486,-1.892586,-1.059031,1.91283131.344484,-2.389139,0.522376,3.28829731.384462,-2.37641,1.859853,1.36780131.414461,-2.970391,1.760418,4.02146131.444429,-4.719867,2.852374,3.8587231.484407,-1.940137,4.995128,1.48912531.514406,-3.078167,1.880855,1.35126731.544405,-4.076738,1.771393,0.23441131.584383,-0.964968,3.262283,-2.77748631.614351,-0.682186,1.107648,-3.46267131.64435,-0.590293,-2.140531,-3.5626131.684328,0.551646,-4.09659,-4.04497531.714327,2.08172,-3.959299,-4.51848731.744295,3.804816,-4.462499,-5.60481631.784273,-0.216751,-5.593691,-0.44868231.814272,2.304728,-2.844532,0.32104531.844271,3.257278,-2.504686,0.29188931.884249,2.252963,-4.727326,1.26129531.914217,1.810212,-4.068703,1.8817631.944216,1.499096,-1.297346,1.61207931.984194,-1.464635,-0.776576,0.71366932.014193,-4.204926,-2.159807,1.7397532.044161,-2.894586,0.924889,2.32807832.084169,-4.39718,2.222928,1.10108332.114138,-4.588362,3.42704,4.82116632.144136,-4.453703,6.417303,3.91803832.184115,-2.448099,5.114571,2.46065532.214113,-3.142231,2.272303,2.12416732.244068,-3.501012,1.6834,-0.07852432.284046,-1.539245,2.400347,-3.38332532.314044,-0.57077,0.287855,-3.52862232.344013,-0.578678,-3.047607,-3.71055532.384021,1.409791,-4.594531,-4.07267232.413989,4.385747,-2.429706,-6.08831732.443988,1.17666,-3.686744,-3.97470532.483966,1.413465,-4.843884,-0.33319432.513965,2.791704,-4.061774,-0.37548532.543933,2.760334,-4.658793,0.40569632.583911,0.728842,-4.014469,1.55774532.61391,0.359998,-1.537864,1.52845832.643909,0.344088,-0.089452,0.55983432.683887,-1.772857,-1.115271,1.60005232.713855,-2.967246,-0.957395,2.89083632.743854,-3.164693,0.307446,1.90325832.783832,-3.263401,2.672061,3.50319332.813831,-3.970119,5.069901,4.10997432.843799,-3.464779,6.080329,3.10333732.883808,-2.760264,3.342344,1.93697532.913776,-3.795384,2.197863,0.83233332.943775,-2.265832,2.434447,-2.17634232.983753,-0.67591,1.75839,-3.92837933.013751,-0.445785,-0.97448,-3.70227133.04372,-0.286839,-3.552296,-4.111633.083698,1.305855,-4.705574,-5.40781133.113696,3.375197,-3.77444,-6.93986133.143695,0.770301,-4.043683,-2.269533.183673,0.180993,-5.222672,0.24287733.213642,2.294198,-3.562655,0.24967633.243589,2.119642,-3.099487,0.99918533.283567,0.850941,-2.806703,1.67176633.313566,0.223095,-2.20351,1.16726133.343534,-0.579404,-1.208657,0.43785933.383512,-1.699379,-0.027393,2.94725133.413511,-2.977408,-0.742169,3.13568433.44351,-3.434664,-0.181743,1.57774533.483488,-4.139716,4.258115,4.13832233.513456,-4.520658,6.547434,2.72169133.543455,-2.04317,6.042045,1.85733233.583433,-3.602045,3.632143,1.40826833.613432,-3.543083,1.991833,-0.44860233.6434,-1.180296,1.64721,-3.07994433.683409,0.240569,-0.171868,-3.86248233.713377,0.457341,-2.585791,-4.00988933.743376,1.214901,-4.50698,-4.44238433.783354,4.066347,-4.41774,-6.76607733.813352,2.896536,-3.778612,-3.83848333.843321,-0.108007,-5.714261,0.07535633.883299,4.051007,-4.15521,0.16010533.913298,3.638835,-4.746279,0.48788233.943296,1.949714,-4.471968,1.39226733.983274,1.155672,-1.371161,1.21879834.013243,-0.37337,-0.699341,-0.261534.043241,-3.178091,-1.649523,-0.09590934.083219,-2.704158,-0.889558,3.06487234.113218,-4.755234,0.119012,1.13907734.143186,-4.201136,1.084626,3.6898734.183195,-5.660336,6.148486,4.34274134.213163,-3.059649,7.138888,3.46010734.243128,-3.435062,3.594302,2.14576534.283106,-4.278699,2.327011,-0.73503534.313105,-1.834792,3.111135,-2.86540134.343073,-0.823397,1.643993,-3.69203734.383051,-1.029882,-1.565301,-4.1863534.41305,0.659544,-3.384907,-4.59916934.443049,2.685283,-4.482381,-4.45605134.483027,3.521869,-3.124457,-6.97113834.512995,0.099418,-5.311693,-1.38268634.553004,0.585264,-4.486645,0.50835534.582972,2.878,-2.745865,0.30219634.612971,1.673531,-3.582183,1.00206934.642969,0.712214,-3.051948,1.00876434.682947,0.463586,-1.57695,0.75483734.712916,-0.959111,-1.726634,0.23797134.742914,-1.527897,-1.261004,1.86858834.782892,-2.723649,0.469828,3.36627834.812891,-3.159069,0.800087,1.56780434.84286,-3.683406,1.743052,4.22394534.882868,-4.856294,5.480359,3.84301234.912836,-3.19137,5.656915,2.7583234.942835,-3.322138,3.57802,2.18366134.982813,-3.127058,2.46448,-0.34671135.012812,-1.454572,1.772086,-3.2777635.04278,-0.667585,0.518844,-3.64714835.082758,-0.022108,-1.93162,-4.17212835.112757,0.805078,-3.647455,-4.34840935.152735,2.713664,-3.727566,-6.85014535.182734,0.620559,-6.375313,-1.99095535.212702,-0.947064,-6.574416,1.02725135.242665,3.112891,-2.852536,0.48516135.282644,2.754122,-3.147396,0.42002235.312642,1.782294,-3.3697,0.51667235.35262,1.059415,-1.091196,0.15589435.382618,0.168532,-0.385323,-0.02791835.412587,-1.747378,-1.149187,1.89563435.452565,-2.966633,0.684542,3.04494935.482563,-1.458438,2.696042,1.31272335.512563,-3.236457,2.468339,3.93337235.552541,-4.463002,4.477078,3.73953835.58251,-2.254249,4.890782,2.6137935.612507,-3.226151,2.410662,2.494835.652486,-2.892707,2.852532,-0.04477735.682484,-1.010816,2.633862,-3.06479935.712483,-0.506967,0.639588,-3.41000635.752462,-0.569349,-3.299888,-3.90712135.782429,0.914585,-4.237331,-4.21020135.812428,3.911035,-3.122621,-5.26022735.852407,2.067746,-4.179744,-4.29169235.882406,0.042667,-5.125468,-0.52935735.912373,1.333291,-3.862015,-0.4318335.952382,2.354316,-2.255561,0.13182935.982351,1.628465,-2.914828,0.62932336.01235,1.14978,-2.80752,0.82957536.052327,-0.285068,-2.303386,0.50948636.082325,-1.61368,-1.875358,2.06352836.112295,-2.418814,0.89094,3.97904336.152272,-2.743038,1.83029,2.25859636.182271,-3.570578,1.545424,4.90427136.212269,-4.219315,4.097638,4.37569936.252219,-2.296216,5.105754,2.30201136.282188,-3.098353,2.232747,1.89701836.312186,-3.509849,2.070328,0.6887736.352164,-1.601504,2.749503,-2.77545436.382163,-0.691077,1.213729,-3.5647536.412162,-0.527181,-1.763483,-3.26391236.45214,0.521652,-4.595256,-4.12214536.482108,3.064595,-3.342506,-4.74721936.512107,2.633737,-2.681513,-5.23938136.552085,-0.577868,-5.490116,-0.02185136.582084,1.583321,-3.844873,0.29519536.612052,2.200034,-3.259291,0.59353236.652061,0.907289,-3.714564,1.39237736.682029,0.516865,-2.289153,1.1097436.712028,1.092682,-0.308093,0.25118436.752006,-0.626806,-0.466558,1.28164336.782004,-2.08754,-1.171714,2.48329436.811973,-1.362498,-0.036197,1.08196636.851951,-3.082714,2.766468,2.88174636.88195,-4.707319,4.067152,3.53702536.911948,-3.44133,5.882988,2.3516136.951926,-2.876113,2.992986,1.82396336.981925,-2.826081,2.998301,0.69190337.011893,-1.111037,3.30264,-1.99830537.051871,-0.70558,0.997019,-2.98384237.08187,-0.576524,-2.178658,-3.26693237.111869,0.371362,-3.63026,-3.77866237.151847,2.954847,-3.541986,-4.68431737.181815,3.328789,-4.595707,-5.36117937.211814,0.385064,-4.597431,-1.20081237.251749,2.486999,-2.917091,-0.00902537.281748,2.722584,-3.810876,-0.06977737.311747,2.049933,-4.751975,0.56713237.351725,-0.080742,-2.343653,0.98119237.381693,0.475832,-0.181041,0.44885437.411692,-0.166661,-0.349628,0.48567737.45167,-2.796287,-1.021616,2.03916237.481669,-1.833732,0.723025,2.25330837.511637,-2.890526,0.76339,1.24125437.551645,-3.945759,3.107417,3.75118637.581614,-3.531412,6.159243,2.82791337.611612,-2.459907,5.37535,2.179337.65159,-2.920958,2.20914,1.31807237.681589,-2.454903,2.043662,-0.6864937.711557,-1.036842,2.278503,-2.53719137.751566,-0.219639,-0.454825,-2.56926937.781534,-0.038991,-2.830963,-2.8735637.811533,0.902502,-3.812164,-3.46877637.851511,2.419415,-4.306833,-5.68683537.88151,1.301582,-3.753684,-3.58769337.911478,0.054426,-4.24675,0.19894337.951456,1.932233,-4.082811,0.29077537.981455,2.245661,-2.81827,0.65611338.011454,1.867138,-1.998757,1.11608338.051432,1.163847,-1.091889,1.04172838.09141,-0.061275,-0.55575,0.45890238.111399,-1.113575,-1.097381,1.4629338.151377,-2.702085,-0.651096,3.51321438.181376,-3.042913,0.901362,1.69760438.211374,-2.591561,2.212176,3.70877938.251332,-4.296919,4.510743,4.03810238.281301,-2.229951,5.528687,2.85848538.311299,-2.754834,3.318787,1.67898538.351277,-3.624096,2.636945,-0.35697938.381276,-1.886753,2.170671,-2.68420838.411275,-0.89827,0.446505,-3.60906138.451253,-0.407267,-1.728215,-3.5955138.481221,0.712851,-3.294042,-3.76920438.51122,1.513437,-4.299432,-4.42852538.551198,1.647487,-4.549274,-4.44019838.581197,0.67273,-5.160903,-0.70965338.611196,2.017979,-4.752097,0.27504138.651174,3.254662,-3.866589,0.59009738.681142,1.564533,-3.062564,1.10758738.711141,0.67495,-1.218535,0.84058438.751119,1.274104,0.161291,0.11866538.781118,-0.76684,-1.689042,1.19343338.811086,-3.66202,-3.031648,2.81420738.851094,-2.110439,2.214042,2.21808538.881063,-3.138409,2.720163,4.12934638.911061,-4.792879,2.491999,4.64582838.951039,-3.286855,6.400731,2.28927938.981038,-2.727491,5.166457,1.89754439.011006,-3.556147,3.650966,1.1390739.051015,-2.447518,2.023752,-2.96053639.080983,-1.070947,1.312056,-4.07965139.110982,-0.517379,-0.732085,-3.86582239.15096,-0.202518,-3.480186,-4.10194139.180959,1.333946,-4.696231,-3.78775539.210927,3.046426,-3.474935,-5.55040139.250907,-0.225259,-4.249041,-0.80429939.280875,0.406854,-6.249553,0.65144639.310874,2.114514,-4.60595,0.88781839.350852,1.978867,-1.837855,0.7675939.38085,1.090709,-1.241937,1.00058939.410819,1.258498,-1.164564,0.36867539.450827,-0.822669,-1.399445,0.41396839.480796,-2.323257,-1.809447,3.25524539.510794,-3.243659,-0.409093,3.05893439.550772,-1.426866,3.865242,2.70434539.580771,-3.450109,3.877922,5.26055439.610739,-4.182587,3.919488,4.11122639.650717,-2.1788,4.170286,2.09822539.680716,-2.929878,3.935517,1.29453839.710715,-2.660077,3.046107,-0.5915239.750693,-1.579795,1.537466,-2.99264139.780692,-0.784148,0.396933,-3.39492139.81066,-0.01246,-1.396378,-3.56284839.850638,1.041663,-4.497908,-4.01162139.880637,1.982188,-5.068004,-5.78538439.910636,2.55584,-2.899817,-3.89330439.950614,0.259171,-4.608607,-0.25815539.980612,1.701739,-4.212868,-0.18697840.010581,2.654459,-2.777189,-0.00353340.050559,2.628617,-3.199811,0.72297940.080558,2.264785,-3.087658,0.92469140.110556,0.686871,-1.964975,-0.05417240.150534,-0.580776,-1.529768,1.26054340.180533,-2.257703,-1.617362,3.39957940.210501,-3.036445,-0.424318,1.77148840.250432,-2.981286,1.728891,5.28150240.280431,-4.596876,3.208784,5.06604940.31043,-3.802366,4.81058,3.91791640.350408,-3.868836,3.975126,2.10798640.380407,-4.404096,3.868009,0.53094140.410375,-2.740554,2.986884,-1.51543940.450353,-1.871428,0.094809,-3.62876940.480352,-1.402436,-1.213477,-3.98531640.510351,-0.07103,-2.729159,-4.64802740.550329,1.510516,-4.907205,-5.52583840.580327,2.291282,-3.8658,-6.25476440.610296,0.075421,-4.565877,-1.10759840.650274,1.278675,-5.881911,0.33452640.680272,3.389784,-4.067766,0.27191740.710271,2.857109,-3.907371,0.62033940.750249,1.475635,-2.847684,1.20247240.780248,0.992937,-0.938834,0.57752640.810216,0.276104,-0.832443,0.35243540.850194,-2.47953,-1.979683,2.91178240.880193,-3.395156,-0.182402,2.88100940.910192,-2.4441,1.93393,2.37563140.95017,-4.107908,4.118729,4.90399540.980138,-3.387386,6.391282,3.63711941.010137,-2.592849,5.130609,2.57440541.050115,-3.985757,3.159191,1.50460141.080114,-3.242033,3.046403,-1.07043441.110113,-2.121931,2.028238,-3.78264841.150091,-1.092237,-0.432947,-3.96407541.180059,-0.301215,-2.488525,-4.40748341.210058,0.172708,-4.360129,-4.97424441.249997,1.092221,-6.062245,-6.03328141.279995,2.125866,-4.065846,-4.25126641.309994,-0.704205,-3.426628,-0.2680641.349972,1.105638,-4.587838,0.18073541.379941,1.713148,-3.691448,0.66453141.409939,2.010834,-3.110936,0.9561441.449917,1.506526,-2.432239,1.01252441.479916,0.420206,-2.120575,0.61514341.509915,-0.930576,-1.519548,2.25014841.549893,-2.636779,-0.255729,4.09656541.579861,-2.204124,1.260447,3.22414841.60986,-2.695911,2.764143,4.84763741.649838,-3.796748,4.193076,4.67877941.679837,-2.497401,5.0051,3.17108741.709836,-2.376153,3.468433,1.91683541.749814,-3.708762,3.588931,-0.47350141.779782,-1.896744,2.995803,-2.99112941.81979,-1.222959,0.560085,-4.08969741.849759,-1.306745,-0.863811,-4.29353241.879757,-0.422963,-2.441157,-4.64503141.909756,0.743488,-4.702717,-4.8319141.949734,1.453168,-5.540527,-4.78904141.979702,-1.581541,-4.555748,-0.18434742.009701,1.25201,-2.428669,0.38670342.049679,1.494439,-3.594491,0.23301442.079678,1.211543,-3.907703,0.65506342.109677,0.713444,-2.302804,1.10128642.149655,0.871992,-1.608769,0.93094642.179623,-0.209944,-2.245621,2.2825242.209622,-2.269897,-1.024766,4.1888242.249554,-1.654375,1.469265,3.98861242.279553,-2.664084,1.15171,4.18325342.319531,-3.921465,3.409288,4.58186742.34953,-2.858114,4.98858,2.71347342.379498,-2.73087,3.625528,1.46748942.419506,-3.549606,3.513803,-0.76456442.449475,-2.188647,3.565703,-2.77190742.479473,-1.199978,1.945378,-3.57913742.519451,-1.103474,-1.44311,-3.8487242.54945,-0.40617,-3.059665,-4.09542542.579418,0.602408,-4.301018,-3.98399342.619427,2.462763,-4.040433,-6.55734442.649395,0.226939,-6.013121,-3.04855942.679394,-0.774536,-5.394685,-0.06414242.719372,1.5615,-2.938582,-0.21066942.749371,1.218215,-2.656462,0.38326142.779339,1.419684,-2.395335,0.61379342.809338,1.000727,-1.906213,0.51538742.849316,0.061776,-1.483364,1.28970242.879315,-1.271105,-1.278706,3.3745142.919293,-2.125775,1.671675,4.26491342.949291,-1.756229,2.634189,3.6049942.97926,-3.329451,1.302781,3.99487643.019268,-3.344883,3.722026,3.62378943.049237,-1.405681,5.360187,1.69783343.079235,-2.502884,3.275395,1.26937743.119213,-2.811701,2.999593,-0.65646543.149212,-1.425651,2.182121,-3.01751943.17918,-0.80304,0.400548,-3.7905843.219189,-0.523244,-2.582683,-3.76980943.249145,0.238512,-4.326444,-4.29432143.279144,1.971518,-4.210286,-4.77626843.319122,1.150614,-4.215566,-3.65166843.349121,-1.320737,-4.397884,-0.35870943.379089,1.854499,-3.043175,-0.22004443.419098,1.866846,-3.079388,0.02656143.449066,2.006377,-3.261977,0.28955643.479065,1.663239,-2.890941,0.29188143.519043,0.350214,-2.586105,0.29154543.549041,-0.559964,-1.32136,2.38101243.57901,-1.878598,0.190271,4.04315843.619018,-2.274299,1.053503,3.32208643.648987,-2.471734,1.886497,4.10628843.678985,-4.185276,3.28684,5.0482543.718963,-3.052804,5.213791,2.87393543.748962,-3.446029,3.761618,1.45230143.77893,-3.635482,3.538845,-0.1759343.818939,-1.203697,3.208966,-2.54429543.848907,-0.828473,0.404537,-3.63900143.878906,-1.084548,-1.971732,-3.90993743.918884,-0.042567,-4.230267,-4.25081643.948883,0.551603,-4.253928,-4.68700343.978851,1.075424,-5.650756,-6.20053544.01886,0.391029,-3.63843,-0.85921844.048828,0.996242,-3.312613,0.15793244.078827,1.38604,-3.438841,0.1652544.118805,1.412228,-2.49882,0.8034144.148803,1.565389,-1.808413,0.76752844.178772,1.029287,-1.569527,0.33564244.21878,-0.793254,-0.319304,2.12840544.248718,-1.558146,-0.353275,3.79051444.278717,-2.492518,-0.80176,3.60064744.318695,-1.749588,3.241378,3.6356144.348694,-3.238712,3.708806,5.74385244.378662,-3.106992,4.502237,4.21290544.418671,-2.43167,3.803742,2.29543844.448639,-3.310827,3.304785,1.124344.478638,-1.985546,2.798858,-1.40728244.518616,-1.099786,0.89337,-3.89822344.548615,-0.39294,-0.477101,-4.12335644.578583,-0.011721,-2.531431,-4.20396544.618592,0.171628,-5.489849,-4.43884744.64856,2.478821,-5.114267,-6.60059844.678559,1.234435,-3.896529,-2.97291344.718537,0.786576,-3.323129,-0.00829544.748535,1.808494,-3.31883,0.01480944.778504,1.669815,-3.24475,0.48649444.818512,1.369731,-2.43147,0.34873744.84848,0.579428,-1.759667,-0.44444944.878479,-0.512792,-0.976417,0.27788444.918457,-1.676612,0.009775,3.41511744.948456,-2.319161,1.010438,3.88372944.978424,-3.294277,1.153408,2.08644845.018433,-2.948985,4.305377,5.10524445.048401,-3.427867,4.997062,4.28991545.0784,-2.35498,3.90916,2.83289545.118378,-3.494827,3.741254,0.90765245.148377,-2.606668,3.986996,-1.14819445.178345,-1.584368,2.002361,-3.11449545.218353,-1.312309,-1.07434,-3.51538545.248265,-0.930617,-3.116498,-3.96515845.278264,0.308046,-4.439751,-3.61438645.318242,2.578703,-4.762951,-6.77551545.34824,0.373809,-4.887767,-3.70633345.378209,-0.673183,-4.015193,0.32177845.418217,1.876284,-2.963023,0.09603845.448185,1.909422,-3.014908,0.42904645.478184,1.763272,-3.141897,0.70814245.518162,0.941464,-2.01358,0.03438245.548161,0.096857,-0.10981,0.06641945.578129,-1.125699,-0.275385,2.5789945.618138,-2.854117,-0.160296,3.56478445.648106,-2.832055,2.227229,1.39744545.678105,-1.626273,3.746325,4.2466245.718083,-4.637548,4.696437,4.03753445.748082,-2.198158,5.422856,3.03723545.77805,-3.042178,3.769402,2.1380145.818058,-3.140863,3.894627,-0.17173345.848027,-1.123852,2.707069,-2.2913845.878025,-0.656901,0.384303,-3.00726145.918004,-0.812347,-2.175213,-3.66778745.948002,0.012061,-3.300535,-4.21220845.977971,1.088294,-4.906961,-4.69042546.017979,2.664822,-5.145662,-5.59765246.047947,-1.029547,-5.136349,-0.87746946.077946,0.027074,-3.211083,0.74068346.117924,1.823106,-2.088133,0.38845646.147923,1.057269,-3.113014,0.54650446.177891,0.500057,-2.737048,0.49664646.217869,0.578749,-0.668374,-0.05900746.247834,-0.531259,0.429948,1.54747546.277833,-2.101031,0.366826,3.07559546.317811,-3.070782,0.370606,2.06226646.34781,-1.957144,3.695271,3.24616146.377778,-3.372556,4.248659,4.64934546.417756,-2.312058,5.426863,2.87463546.447755,-2.014582,4.104637,2.33674146.477753,-2.468666,3.709839,1.51553846.517731,-1.415056,2.451623,-1.58598146.54773,-0.444017,0.801662,-2.60409446.577699,-0.150558,-1.521327,-3.06087646.617677,0.197539,-4.042612,-3.51007846.647675,1.79557,-4.561632,-4.67879646.677674,2.342545,-4.155964,-4.6635346.717652,-1.129754,-3.962553,-0.47609346.747651,1.583766,-2.731054,-0.45981446.777619,1.68582,-3.478217,-0.95932746.817597,1.396364,-3.256721,-0.53164346.847596,1.616092,-2.099849,-0.27591546.877595,0.889635,-1.748571,-0.05584846.917573,-1.281693,0.180512,1.97483846.947572,-1.287605,1.503806,3.25671446.97754,-1.942677,1.290103,3.19687747.017518,-2.506282,1.617177,2.4572847.047517,-3.06141,2.757528,4.45610947.077515,-2.151126,5.504444,3.45876847.117493,-1.065131,2.920331,2.76061147.147492,-2.269273,2.167057,2.04224847.17746,-1.32951,3.059925,-0.52966447.217439,-0.316431,1.082534,-3.0218447.247416,-0.674168,-1.641647,-3.07307447.277415,-0.630008,-3.347911,-3.74962447.317393,1.82402,-3.848794,-5.0522947.347361,2.13536,-4.577191,-6.15150947.37736,-1.644083,-4.626846,-1.8325547.417338,1.09373,-1.601757,-0.84208547.447337,1.384069,-2.138364,-1.00181447.477336,0.754977,-2.963405,-0.5665547.517314,0.719694,-1.988355,0.22315747.547282,0.088759,0.266491,0.36871747.577281,-0.91831,1.277115,1.99128547.617259,-2.235811,0.964864,4.24627847.647258,-2.836095,1.83677,3.60307547.677256,-2.216253,2.391213,2.20134547.717234,-3.633879,3.500009,4.89319747.747203,-2.487098,5.800247,3.31761547.777201,-1.499214,3.974339,2.50339547.817179,-2.501981,3.087606,1.19504347.847178,-1.53261,3.31432,-1.22378247.877177,-1.047117,1.946095,-3.04238547.917155,-0.989647,-0.986541,-3.34609647.947123,-0.555282,-3.134009,-3.95324147.977122,0.365535,-5.051923,-4.45066548.0171,2.060543,-5.542941,-5.46012948.047099,-0.651328,-5.641023,-0.9589948.077098,0.710288,-3.191485,0.53301448.117076,2.297087,-2.717089,0.23373348.147044,1.627813,-3.009162,0.72923348.177043,0.534414,-1.779197,1.08129348.217021,-0.196973,0.107184,0.90696548.246985,-0.695972,0.228745,0.94295548.276983,-2.686421,-0.03429,3.32397748.316961,-2.927485,1.202024,2.34645348.34693,-2.290893,2.310429,2.63756748.376928,-4.229681,4.134,5.10509148.416906,-2.40639,5.870633,3.41370948.446905,-2.66914,3.405981,2.43413148.476904,-3.119861,3.745197,0.7178148.516882,-0.884793,4.271434,-2.34601148.54685,-0.479652,1.665283,-3.37303248.576849,-0.769387,-1.084495,-3.13324948.616827,0.485127,-3.345078,-4.19849748.646826,1.550626,-4.723225,-4.37222648.676825,3.033347,-5.595575,-7.00220748.716803,-0.783065,-5.896358,-1.96222548.746771,0.058532,-2.49602,0.62635748.77677,1.140071,-1.796458,0.18739148.816748,0.385221,-2.130994,0.63354948.846747,0.547249,-1.241028,0.69319248.876715,0.904297,-0.679385,0.40114148.916723,-1.146464,-0.194051,1.46915348.946692,-2.476069,0.237434,3.31544448.9867,-2.56301,0.839223,2.06554549.016668,-2.591044,2.423508,2.39731649.046667,-3.296345,4.494495,4.91375249.086645,-1.846331,4.319431,3.12354249.116644,-2.143553,2.207069,2.05831949.146612,-2.546102,3.12976,0.81950249.176611,-0.943493,3.35589,-1.37135949.216589,-0.519614,0.77065,-3.17304849.246548,-0.203786,-1.314548,-3.31066449.276516,0.530953,-2.826554,-3.71942749.316525,2.107334,-4.614675,-5.04706349.346493,1.406227,-6.146048,-6.37146449.376492,-0.645454,-5.440071,-1.26452949.41647,0.852062,-1.370907,0.28500449.446468,1.429091,-0.893569,0.16196649.476437,1.286221,-1.392064,0.48755849.516445,1.499601,-1.419086,0.59964549.546414,1.090451,-1.034877,0.15636749.576412,-0.082537,-0.556301,0.31715649.61639,-1.568467,0.102017,3.18875949.646389,-2.35275,0.558922,3.16088749.686367,-1.240175,3.000144,2.34711349.716366,-2.953526,2.865578,4.8984449.746334,-4.132941,3.086496,3.89531549.786312,-2.826807,4.593585,2.5381249.816311,-2.975039,4.512925,1.5208749.84631,-1.890127,2.707561,-0.54632149.886288,-0.785658,-0.001866,-3.26499449.916287,-0.059726,-1.09655,-3.48589549.946255,0.433419,-2.503314,-3.69357149.986233,0.985118,-4.973706,-4.23814950.016232,2.243023,-6.704283,-5.38631750.04623,0.297246,-6.560856,-2.34297750.076199,0.027727,-3.271515,-0.13887650.116207,1.619213,-1.210571,-0.2815250.146176,0.777508,-1.93203,0.25014950.176174,0.397824,-1.880108,0.77773650.216152,0.33231,-1.073792,0.73259950.246113,0.024711,0.055981,0.86131850.286091,-1.259167,1.073724,2.85657150.31609,-2.579713,0.838045,3.67206150.346058,-2.551547,2.538833,1.79462950.386036,-2.591158,4.013845,4.32783450.416035,-4.078178,2.995392,3.58422450.446034,-2.744335,3.879427,2.9590150.476002,-2.632125,4.653831,2.38298950.516011,-2.263278,3.817465,0.77865550.545979,-1.548022,1.257997,-1.88031650.575978,-0.979714,-0.12528,-2.71152350.615956,0.734719,-1.34227,-2.91032250.645954,1.540287,-2.452034,-3.56462250.685932,1.814536,-4.750637,-6.8876450.715931,-0.021482,-6.015459,-2.8562350.745899,-0.646653,-5.295565,0.07094250.785878,2.285875,-2.645989,-0.30434150.815876,2.147906,-2.786803,0.22228250.845875,1.930958,-2.866889,0.67955450.875843,1.417197,-2.014629,0.95336150.915852,-0.155108,0.476621,-0.49551150.94582,-1.343686,0.9385,0.43242950.975819,-2.080055,-0.023247,3.50720151.015797,-3.146615,1.319516,0.5686451.045796,-2.52798,3.321303,3.15292251.085774,-4.248718,4.631244,3.17505951.115773,-2.63323,6.164882,2.79622651.145741,-2.666582,3.850465,2.2803951.185719,-2.923654,2.626028,0.47442751.215718,-1.334997,2.293967,-1.75271451.245683,-0.492645,0.816272,-2.71593551.285661,0.186655,-2.0604,-2.78030951.31566,0.630148,-3.766262,-3.22974151.345628,2.353987,-4.442889,-4.27637651.385606,1.575668,-5.305859,-6.00748651.415605,-1.535719,-6.785599,-0.53165351.445604,0.69138,-3.275002,0.88788151.485582,1.937094,-1.155992,0.54405151.515581,1.596924,-1.698658,0.80919951.545549,1.841975,-1.997596,0.87834551.585527,0.676494,-0.891809,-0.38854751.615526,-1.485612,0.127231,-0.10471851.645525,-1.353083,0.573965,2.47789451.685503,-2.941245,1.433976,1.10638351.715501,-2.44682,2.745088,1.34130151.74547,-2.847718,4.098688,4.24328851.785448,-3.084092,5.459788,2.83813451.815447,-2.342065,3.856903,2.59427951.845445,-3.071485,3.529178,1.745351.885423,-1.50753,2.678197,-1.26396151.915422,-0.819165,0.521711,-2.44951851.94539,-0.2392,-1.371542,-2.7585751.985399,0.899111,-2.868317,-3.66035452.015367,2.434343,-4.266413,-3.56666952.045366,3.806177,-4.81348,-5.96752.085344,0.223044,-6.622025,-1.57303552.115343,1.204154,-3.498675,0.89417952.145311,2.180832,-1.762436,0.44163752.18532,0.956315,-2.860881,0.85984752.215288,0.518904,-2.449913,0.8901352.245287,0.716785,-0.940291,-0.23800652.285237,-0.968436,0.013713,-0.69980852.315235,-1.933595,-0.524013,1.71918752.345204,-1.990376,1.222994,2.67923952.385212,-2.932666,2.975876,1.52040252.415181,-2.92504,3.120165,4.46330652.445179,-3.212701,4.587828,3.25817552.485157,-2.010833,3.771031,2.28588352.515156,-2.583932,2.660052,1.95603652.545124,-1.615467,2.998059,0.35879152.585133,-0.148903,1.124283,-2.81827952.615101,0.214164,-1.14299,-2.66572552.6451,0.796738,-3.079956,-2.74726252.685078,2.448341,-4.003221,-3.52604852.715077,4.607783,-3.165337,-6.04564352.745045,0.69477,-6.186408,-3.24719152.785054,1.57472,-3.827469,0.13191152.815022,2.09611,-1.182696,-0.50090752.845021,0.79573,-2.07423,-0.08915852.884999,0.471918,-2.430289,0.71104252.914997,0.831103,-1.05838,0.60385152.944966,-0.164432,-0.369791,-0.2021952.984974,-2.878528,-0.329019,1.09042753.014942,-1.664943,1.841092,3.53575153.044941,-2.439804,3.271755,2.17146253.084919,-1.679751,3.160778,4.48276753.114918,-2.681964,2.415376,5.45710853.144917,-2.798387,3.807936,3.58491753.184895,-2.655825,3.210491,2.31711953.214863,-2.732785,3.457303,1.00688753.244862,-1.25999,2.337798,-1.41105453.28479,-0.757826,-0.344721,-3.21884953.314789,-0.234147,-1.859133,-3.41522253.344788,0.796767,-2.527771,-4.28634153.384766,2.252807,-2.834412,-5.49212753.414734,1.861357,-4.335002,-5.37312953.444733,-0.225103,-5.950277,-1.82304653.484711,2.150551,-2.711069,-0.45563953.514709,2.279802,-2.494866,-0.33530553.544708,1.82039,-3.07729,0.21133753.584686,1.867044,-2.67584,0.00327353.614654,1.079987,-1.379978,-1.50607453.644653,-1.351952,-1.111657,-0.26685853.684631,-1.478951,-0.347784,3.43056453.71463,-2.893209,1.256258,3.06586453.744629,-3.57284,2.018408,2.1007253.784607,-3.322717,3.412001,5.74120553.814606,-3.557167,5.418487,3.85974153.844574,-1.911497,3.794071,2.76303153.884552,-3.56198,2.254432,2.01889353.914551,-2.158143,2.989628,-0.83494853.944549,-1.341468,1.917872,-3.43521253.984527,-0.728022,-0.899389,-3.37699954.014526,-0.029375,-2.673513,-4.08013654.044495,0.706695,-3.488612,-4.64238854.084473,2.992231,-3.420735,-6.56811554.114471,0.615789,-4.781067,-3.67220554.14447,-0.845234,-4.886483,-0.09208754.184448,1.744846,-2.652964,0.00164654.214447,1.546595,-2.336342,0.35344554.244415,1.432692,-2.48854,0.97602154.284412,1.06243,-2.37597,1.02843254.31438,-0.507561,-1.590568,0.13204954.344379,-1.042788,-0.355699,1.61912354.384357,-2.101815,0.298585,3.99878554.414356,-2.576533,0.390531,1.75004154.444324,-2.395299,1.66164,3.91341254.484332,-3.878941,3.940066,4.47099354.514301,-2.719412,4.516422,3.00317354.544299,-3.047919,2.631572,2.05375554.584277,-2.793896,3.25019,-0.10056754.614276,-1.436603,2.87514,-2.39437154.644244,-0.801859,0.958167,-3.18675354.684253,-0.263448,-1.824297,-3.51132154.714221,0.816531,-3.292244,-3.98099454.74422,1.915781,-4.065542,-3.90983454.784198,1.625498,-5.084013,-5.42061754.814197,-0.966672,-6.916057,-1.29117154.844196,0.604285,-3.103279,0.39107454.884174,2.232544,-0.70628,0.17211254.914142,1.432137,-2.061,0.84055754.944141,1.558906,-2.462046,1.06472454.984119,0.951502,-1.200524,0.13704355.014118,-1.209584,-1.061949,-0.44615455.044116,-1.634572,-0.227939,2.46732155.084094,-2.381637,1.617667,2.9173955.114093,-2.794347,2.371064,1.67989655.144061,-2.007347,3.565534,5.12582755.184039,-2.666311,4.244984,4.26252155.214038,-1.934595,3.233651,3.6377655.244037,-2.779197,3.43036,2.77589555.283955,-1.767971,3.843537,0.17837655.313954,-1.143487,1.355218,-2.14142155.343922,-0.56836,-0.652107,-3.18559955.3839,0.256934,-1.969702,-4.08912255.413899,1.377248,-2.3923,-4.63830855.443898,2.085028,-3.24022,-6.12496755.483876,0.372675,-6.780654,-4.94870755.513874,0.326968,-4.407785,-1.24030955.543843,1.903125,-1.206012,-0.42072955.583851,1.524962,-2.747366,-0.35376655.61382,1.83027,-3.263349,0.0569455.643818,1.812492,-2.612463,0.07136855.683796,0.127178,-1.156051,-0.92646355.713795,-0.884972,-1.242674,1.10754755.743763,-2.183068,-0.740772,3.01073755.783772,-2.853674,2.087289,2.69675755.81374,-3.135847,2.908325,4.52472755.843739,-3.498394,2.856347,6.1143455.883717,-3.055826,4.994802,4.13853555.913716,-2.474485,3.830786,3.52428455.943715,-3.356182,3.605584,2.59431455.983693,-2.088333,2.367154,-1.58268456.013661,-1.597427,0.735843,-2.69427656.04366,-0.550404,-0.96661,-2.76734156.083638,0.47117,-2.775017,-3.91894956.113636,1.332844,-3.343997,-4.57867456.143635,2.023024,-4.315082,-6.93898856.183613,-0.294362,-5.335357,-1.56699456.213581,1.293265,-3.617161,0.21296556.24358,2.192151,-2.850804,-0.22868956.283549,2.100938,-2.967609,-0.00117456.313548,1.766283,-2.871878,0.12903356.343547,1.040115,-2.059411,-0.11622456.383525,-0.463079,-1.078435,-1.27257556.413524,-1.731602,0.095976,0.99555556.443492,-1.939466,0.877728,2.6847456.48347,-2.418892,1.375838,0.75085356.513469,-2.483481,3.688585,4.80647556.543467,-2.705251,4.952791,4.83237956.583446,-2.317846,2.952891,3.13531456.613444,-2.998619,3.818729,2.25260156.643413,-1.850053,5.697257,0.68976556.683421,-0.738501,1.500954,-2.50742656.713389,-0.988167,-1.152086,-3.21153156.743388,-0.072763,-1.949443,-3.68637656.783366,1.149485,-3.043376,-4.21830456.813365,1.636732,-4.774656,-5.77179856.843333,1.120757,-5.951076,-5.68226856.883342,-0.993653,-4.124439,-0.11296656.91331,1.338563,-1.597693,0.04933656.943309,1.307636,-2.007005,-0.05303156.983287,1.266454,-2.635593,0.56843957.013286,1.288521,-1.943541,0.77327457.053264,0.75652,-0.903824,0.28613257.083262,-1.164265,-0.222728,1.23479857.113231,-1.291728,0.727246,3.92815357.143229,-1.853395,1.666126,2.58769657.183207,-2.164843,3.094445,4.90408957.213206,-1.878949,3.843706,4.81796457.243205,-1.331494,4.059578,3.13863357.283122,-2.413149,1.658417,2.9492657.313121,-2.317986,3.662708,2.06759457.343089,-1.215963,3.956286,-0.98500557.383067,-1.746363,0.236477,-3.0374557.413066,-0.771476,-2.533871,-2.86532357.443065,0.319355,-3.841698,-3.9506657.483043,1.632706,-4.527742,-6.28562757.513041,1.103215,-6.623607,-4.86433157.54301,-1.804945,-6.57057,-0.80803957.583018,2.915977,-0.137104,-0.26793957.612987,2.824907,-1.945563,-0.3541757.642985,2.219876,-3.834568,0.10812257.682963,3.474237,-2.398421,0.67709557.712962,1.824345,-1.101147,0.08452857.74293,-1.347097,-1.788316,-0.57542457.782939,-2.287466,1.459707,2.93191657.812907,-2.545168,3.624132,2.27394457.852916,-3.668993,1.283371,4.09503757.882884,-3.60991,3.591235,5.0694557.912883,-2.947835,5.781577,3.70324657.952861,-3.491538,2.789954,2.51156757.98286,-3.100602,3.898052,1.79923558.012828,-1.460542,4.210475,-0.1162158.042827,-2.047126,1.232589,-2.78403458.082805,-1.267984,-1.44563,-3.38271858.112803,0.0137,-2.17577,-3.95929858.152781,1.999665,-3.367775,-5.67873558.18278,1.650212,-5.528861,-6.02756458.212779,-0.138799,-6.303764,-0.77660458.252748,3.183018,-2.78761,0.30615158.282716,3.552441,-2.774635,0.22400658.312715,3.421111,-3.658857,0.2857558.352693,2.064945,-3.122503,0.80445958.382692,0.929662,-1.553371,1.22354858.412691,-0.357255,-0.788556,0.51455258.452669,-2.412593,-1.497126,1.11151858.482668,-2.594137,1.045574,2.21244258.512636,-3.671338,2.924723,1.29341158.552614,-3.130752,2.29372,5.92557758.582613,-3.37199,3.383888,4.4254158.612611,-2.90933,2.866129,3.41444458.652589,-3.150233,3.991348,1.65801158.682588,-2.184012,3.10665,-0.65327958.712556,-2.091026,0.749428,-3.44898158.752565,-0.415246,-0.364983,-4.31607358.782533,0.293327,-1.462375,-5.15126358.812532,1.462354,-2.667067,-5.49646558.85251,2.574295,-5.036473,-7.90808958.882509,-0.461212,-5.796093,-2.33382958.912477,2.271861,-2.88324,0.20951658.952486,2.854541,-3.730812,-0.37617758.982454,3.032079,-4.698042,0.22421559.012453,3.148851,-3.432007,0.73569959.052431,1.695783,-1.679116,0.51303659.082429,-1.43182,-1.084851,-1.00795559.112428,-3.864649,-2.246081,-0.06097359.152406,-3.120595,0.715713,3.1991759.182375,-5.076774,3.043179,1.67791859.212373,-4.055901,2.581061,5.48161759.252351,-4.1067,5.052137,4.7636759.282313,-2.986007,4.002913,3.42556359.312312,-3.491768,3.197916,2.28664759.35229,-2.219263,4.260881,-0.51345259.382289,-1.677559,1.833158,-2.69990959.412257,-1.27982,-0.596297,-3.52127659.452235,0.461915,-2.286981,-4.10921859.482234,1.824905,-2.8639,-4.40685959.512233,3.115532,-2.694345,-6.91770459.552211,-0.764863,-4.128145,-3.07103359.582209,1.409373,-4.093414,0.7534959.612178,2.986308,-3.328402,-0.29245159.652186,2.66402,-3.999433,-0.13417559.682154,2.667524,-3.28973,0.423759.712153,1.519806,-1.665729,0.71764659.752131,-0.350255,-0.311475,-0.19839659.78213,-2.248726,-0.947004,1.1523659.812098,-2.251617,0.77387,2.50697959.852107,-2.95445,2.242325,1.08867459.882075,-2.602634,2.488964,5.08278159.912074,-2.972084,3.544294,5.64867159.952052,-3.025038,2.173807,3.76800259.982051,-3.139144,2.304135,2.80658460.012049,-2.271795,4.188001,1.45433560.052027,-2.100222,1.299631,-1.66956560.081996,-1.575729,-0.758251,-2.63628360.111995,-0.260187,-1.407666,-3.70005860.151973,1.21514,-2.918827,-4.17053360.181971,1.385863,-3.448504,-5.97019860.21197,1.064443,-2.612019,-6.41307960.251948,0.961562,-3.719704,-0.16309960.281899,2.832932,-3.926898,-0.18685560.311867,3.2164,-4.276051,-0.49357160.351845,2.895323,-4.283612,-0.34666660.381844,1.825293,-2.76491,-0.419360.411843,1.457949,-1.503251,-1.0923160.451821,-2.131612,-2.209168,0.06781260.48182,-2.087568,0.235611,2.80556660.511788,-2.718629,0.996535,2.79163760.551796,-3.115389,1.702533,3.56829460.581765,-3.536699,3.576179,5.34115960.611763,-3.530537,4.14628,4.47178560.651741,-4.038277,2.665862,2.82059560.68174,-3.671565,4.492826,1.37021360.711708,-1.949026,4.209902,-0.46443560.751717,-1.721458,0.057458,-3.03411560.781685,-0.778097,-1.011053,-3.62228860.811684,0.306022,-1.780628,-4.1548160.851662,1.311094,-2.601527,-4.57024260.881661,1.14058,-3.693465,-7.37608560.91166,0.513064,-2.848241,-3.11542760.951638,1.51458,-3.831163,0.90667960.981606,2.321046,-4.858334,0.61762661.011605,2.865053,-4.092022,0.77527861.051583,3.199636,-3.378591,0.81928661.081582,1.982443,-2.195168,0.42037461.11158,0.711799,-1.103537,-0.54289361.151558,-2.379281,-2.231247,0.37015361.181557,-2.853917,-1.398785,2.18950561.211525,-3.203268,1.772111,0.73943561.251503,-3.183431,3.799745,5.41539561.281458,-3.695472,4.366487,5.20172561.311457,-2.604181,5.125166,3.4790561.351435,-2.524903,3.030001,2.56521361.381434,-2.556324,3.754114,0.86182161.411402,-1.538045,3.049398,-2.10924461.451411,-1.349878,0.000919,-3.64802461.481379,-0.736562,-2.068038,-4.39008361.511378,-0.018017,-3.406895,-4.91418561.551356,1.187095,-4.636492,-6.96288361.581354,0.431802,-5.705019,-6.0845661.611323,-0.175012,-3.029854,-0.35182961.651331,2.432914,-1.720531,-0.41768261.681299,1.882307,-4.300265,-0.7377361.711298,1.981869,-4.971714,-0.04205261.751276,1.52528,-2.430028,0.10679661.781275,0.858092,-1.629418,-0.34990161.811274,-1.275689,-2.549227,0.09441361.851252,-1.490822,-0.208642,2.62958161.88122,-2.794419,0.271203,2.24281361.911219,-3.696105,0.702627,2.59338661.951197,-3.616301,3.805956,5.67695161.981196,-3.673069,5.794368,4.67464562.011195,-2.222633,4.377413,3.816462.051173,-3.329726,3.564592,2.73954262.081171,-2.552565,4.198874,0.29953362.11114,-1.510744,1.75545,-2.53491762.151118,-0.949434,-1.434691,-3.72696962.181116,0.294394,-2.435866,-4.68744762.211115,1.535126,-3.149779,-4.7764562.251093,2.873068,-2.347338,-7.65922962.291047,-0.978682,-4.870556,-1.16880962.311036,0.457966,-4.157763,0.23550762.351045,1.79651,-2.895776,-0.65176362.381013,1.379337,-3.007528,-0.08327662.411012,1.796745,-2.521076,0.48144262.45099,1.436484,-1.729183,0.26844562.480989,-0.568412,-1.582824,-0.33167662.510957,-1.335254,-0.937774,1.45763162.550965,-1.740149,0.978396,3.69942462.580934,-2.049356,2.191979,2.57738162.610932,-1.493897,1.752353,5.26774962.650911,-2.573727,2.702999,4.86555162.680909,-1.540414,2.956991,3.59177862.710908,-2.380668,1.896692,2.9142362.750886,-2.924911,4.059605,0.47757462.780854,-1.928888,2.802612,-1.93669662.810853,-1.865811,-0.930598,-3.10058962.850831,-1.195734,-2.389323,-4.50460162.88083,0.112027,-1.911271,-4.72769662.910829,1.410067,-2.243983,-5.72334362.950807,-0.152019,-3.577061,-5.6919162.980806,-0.560458,-3.058969,-0.5564163.010774,0.989127,-3.024156,0.34888263.050752,1.569142,-3.414412,-0.3842263.080751,1.909722,-3.042384,-0.2288963.110749,1.93956,-2.576757,-0.15680563.150727,0.660561,-1.848884,-0.78450163.180726,-1.075954,-0.854611,-0.16257663.210694,-1.042687,-0.528623,2.71055963.250703,-1.942657,0.056646,2.93303763.280644,-1.789115,2.072989,2.88616563.310643,-1.88509,2.476966,5.92690163.350621,-3.029422,3.890375,4.64052463.38062,-1.735383,4.108787,3.98531163.410588,-2.59751,3.678032,3.77997763.450597,-2.262768,3.792463,0.43216963.480565,-2.000515,1.026534,-2.85101863.510564,-1.377095,-1.033219,-3.66786963.550542,-0.390034,-1.965617,-4.73303963.58054,0.312893,-1.841382,-4.62906463.610539,1.32899,-3.161436,-6.60350363.650517,-1.555875,-5.234767,-3.11276863.680486,-0.133971,-3.220073,0.25097263.710484,1.40243,-2.430305,-0.53999463.750462,1.449587,-2.192417,-0.17616563.780461,2.086211,-2.195443,0.22139963.81046,1.386337,-2.590136,0.37009963.850438,-0.20589,-1.772679,0.18187363.880437,-1.069452,-0.590286,2.00396263.910405,-1.199168,0.788755,4.19171663.950383,-2.253341,1.3663,2.56335663.980382,-0.962387,3.312115,4.94059664.010381,-2.329835,2.147461,5.18622564.050359,-2.0719,1.860385,3.41732864.080357,-2.87289,2.740921,2.3751764.110326,-2.490326,4.804755,0.79919364.150334,-1.686673,2.43524,-1.92995664.180302,-1.564716,0.178002,-3.31535564.210301,-0.616858,-0.796635,-3.63118664.250279,1.23557,-2.769567,-4.35309864.280253,1.734866,-4.191374,-4.58416264.310221,1.973175,-3.682899,-7.79251664.35023,-0.527333,-3.839766,-1.72729564.380198,0.708235,-3.493279,-0.02472164.410197,1.274822,-2.984122,-0.42207564.450175,1.091309,-2.329472,0.03378164.480174,0.959671,-2.641248,0.20857964.510172,1.084499,-2.918053,0.11395764.55015,-0.818269,-1.945879,-0.30197464.580119,-1.885621,-0.474584,2.56655964.610118,-1.367659,0.433754,3.72383564.650096,-2.702954,1.575287,2.19521564.680094,-1.958945,2.9246,5.22102264.710093,-3.112502,3.314198,5.03676564.750071,-2.220454,3.613508,3.76023764.78007,-2.55917,4.261762,2.65752164.810038,-2.684376,4.159703,0.46375964.850016,-1.665071,1.477337,-2.70904964.880015,-0.868296,-0.072348,-3.61921164.910014,-0.007749,-1.621672,-4.38999564.949992,1.203941,-2.687043,-5.21008164.979991,1.341058,-3.837868,-7.79638665.009959,-0.221998,-5.821002,-5.02512665.049967,0.558806,-3.602266,-0.47748165.079936,1.831406,-2.131913,-1.04060965.109934,1.189333,-3.035257,-0.74015565.149912,0.712545,-2.462805,-0.36525865.179911,1.4499,-1.513125,-0.45751965.20988,0.5477,-1.499476,-0.40355365.249888,-1.545665,-1.748329,2.42593765.279821,-1.487292,-0.45966,3.64798265.30982,-2.84388,0.924699,2.56886765.349798,-2.072951,3.152809,5.6487565.379797,-3.653604,3.411996,6.13664365.409796,-2.479801,5.699832,4.19940165.449774,-2.078453,3.662996,3.53187765.479742,-2.621403,3.633344,1.88496165.509741,-1.992687,2.196239,-2.07580765.549719,-1.579977,0.490069,-3.79867765.579718,-0.927678,-0.961358,-4.31303765.609716,-0.261012,-2.721582,-5.03423465.649694,0.257552,-5.097798,-6.21613965.679693,-0.144082,-5.903227,-5.94121765.709661,-1.281531,-4.572867,-0.86215565.749639,1.065206,-1.949025,0.05881365.779638,1.132182,-2.295129,0.36503465.809637,1.362372,-2.623946,0.87822365.849615,1.287296,-2.998757,0.82704365.879614,0.397058,-2.894687,0.16239365.919592,-0.729423,-0.345278,1.86157665.94956,-2.238273,1.086444,3.57444265.979559,-2.711907,1.180969,1.89634566.019537,-1.689268,2.753169,4.54133766.049536,-3.706131,2.994864,4.28617266.079534,-2.602042,4.828829,2.48391466.119512,-2.348487,3.81479,1.75515666.149511,-2.284982,4.080213,0.4525466.17948,-1.273021,3.044004,-1.64133566.209478,-0.653878,1.273126,-2.17232166.249456,0.044166,-1.138595,-2.7949566.279417,0.250616,-3.175008,-3.08059366.309385,-0.175387,-5.768092,-2.93936266.349394,1.885459,-5.865668,-3.98046466.379362,0.505127,-7.059634,-2.45773266.419371,0.951065,-6.264097,-0.64107366.449339,1.934806,-5.602545,0.0781366.479338,1.142389,-4.658391,0.86373266.519316,-1.009843,-2.855731,1.10004266.549315,-2.043969,-2.933174,1.61195866.579283,-3.287007,-2.716731,1.91376466.609282,-4.927505,0.23368,2.07571666.64926,-5.422201,3.578878,2.29129666.679258,-4.938032,0.456326,1.84157366.719236,-8.675871,-1.050038,0.61381866.749235,-4.71776,2.156277,-1.21772966.779234,-2.131022,1.995913,-1.28526766.819212,-2.847631,-0.822526,-1.08420566.84918,-0.946269,0.224568,-1.39058166.879179,-0.153657,0.305722,-1.07344566.919157,-0.153036,-0.783236,-0.47222966.949156,1.463435,0.395831,-0.12414166.979155,1.597125,-0.081855,0.3512367.019133,1.538726,-2.353103,1.58455967.049101,2.770358,-2.501283,2.00017867.0791,2.816382,-1.648537,1.49327167.119078,2.379586,-1.434897,0.98848967.149077,2.218164,-0.037859,0.06372267.179075,2.566801,1.053354,-0.18317767.219053,0.772018,-0.267606,-0.28067967.249052,0.099617,-1.337815,-0.40227967.278966,0.071451,0.523548,-0.50458567.318944,-2.321714,1.67766,-1.18476167.348943,-1.825319,0.285798,-1.391567.378942,-3.389647,-0.583976,-1.59605667.41892,-3.835787,3.094242,-3.29258767.448919,-2.091631,3.475539,-2.8357767.478887,-3.369902,1.46489,-2.34750367.508886,-2.286058,1.672914,-2.67080367.548864,1.519096,3.45717,-2.81084667.578863,0.575056,-0.444268,-2.08201567.618841,1.537989,-2.222699,-1.13643767.648839,2.85966,-0.924399,-1.31134667.678808,3.83509,-3.106072,-1.20442767.718816,5.463586,-7.909583,1.46571267.748784,-0.415927,-4.533176,2.12797767.778783,0.403162,-0.007016,2.59197467.818761,3.175493,0.617775,1.80392667.84876,1.894128,-0.447809,1.42859867.878728,1.462743,-0.659461,0.85443467.918737,2.048094,0.899621,0.19205167.948705,0.688888,0.397738,0.51374367.978704,-1.860094,0.538102,1.37482968.018682,-3.152186,2.548184,0.94561468.048681,-1.341305,4.706821,0.23781868.078649,-3.823833,5.943625,2.21354268.118658,-3.592102,6.176181,1.10117468.148626,-1.059231,6.664123,0.91494968.178625,-2.236858,4.952087,0.64415168.218603,-1.44084,3.139398,-1.66458568.248601,0.113811,2.700596,-3.26993468.278541,0.487216,1.154296,-3.35750168.318549,0.12171,-2.348212,-3.36660168.348517,-0.295483,-4.312836,-3.19918768.378516,1.252961,-5.671241,-4.91282168.418494,-0.570991,-5.736254,-1.68726268.448493,-1.319034,-5.136742,0.64735268.478461,1.790423,-2.936776,0.40245468.51847,2.28305,-2.862957,0.7010468.548438,1.257288,-3.068473,1.39733668.578437,2.184807,-1.753429,1.96476168.618415,2.020033,-0.949297,0.87378168.648414,-0.531612,-1.203529,1.85090268.678382,-1.415186,-0.764672,3.62533168.71839,-2.998272,2.786306,1.22564868.748359,-2.714076,4.236287,3.70817968.778358,-3.949592,2.841822,5.07160768.818336,-3.823107,4.733156,3.02900268.848334,-3.208859,4.051265,2.60509668.878303,-4.104006,3.577436,1.55866168.918311,-2.175889,2.99324,-2.64182668.948279,-1.351628,2.884052,-3.40505168.978278,-0.744384,1.255955,-3.46236969.018256,-0.000219,-1.27094,-4.54519669.048255,0.584628,-2.808229,-4.79720469.078223,0.384886,-5.599737,-7.57523569.118232,0.173098,-4.421638,-1.62122369.1482,1.506524,-4.5825,-0.38259969.178199,2.670527,-4.252122,-0.42352369.218177,2.883838,-4.074049,0.29290269.248176,2.650984,-3.427313,0.83655869.278126,2.031424,-2.406598,0.81528869.318134,-0.527796,-1.735039,0.19617669.348103,-2.32458,-3.015261,1.80292969.378101,-2.694886,-1.669621,3.68079669.41808,-4.277464,2.654312,1.69239769.448078,-4.373031,3.263474,5.82813969.478047,-4.9368,3.195102,5.25470369.518055,-4.37143,4.567307,3.28821869.548023,-4.156756,4.261064,1.71490669.578022,-4.450006,2.98701,-0.49795569.618,-3.016319,2.174724,-3.31584969.647999,-1.566283,1.295729,-3.91464869.677967,-1.003169,-0.880692,-4.20975469.717976,-0.027026,-2.651712,-4.2029869.747944,0.973447,-3.660513,-5.42872169.777943,1.525716,-3.295266,-5.39718169.817921,-0.07091,-4.744384,0.02522669.84792,2.17917,-4.10729,0.05492169.877888,3.409743,-3.142751,-0.05831869.917866,2.141635,-4.056512,0.41421969.947865,1.299303,-2.714442,0.59124769.977863,0.865287,-1.103063,0.64666370.017841,-1.870713,-1.50007,0.49733170.04784,-2.373684,-0.762246,3.26475670.077809,-2.211671,1.63132,3.0336870.117787,-2.850991,3.49283,3.09796270.147785,-3.179961,2.342854,6.14628470.177784,-4.635175,3.2508,4.90061270.217762,-2.76445,4.92406,2.90010570.24773,-3.879442,2.924734,2.04230470.277677,-3.609716,1.830784,-0.32542770.317655,-1.963317,1.871042,-3.53914970.347654,-1.081706,0.623578,-3.48456870.377653,-0.256194,-1.896512,-3.92895870.417631,0.758519,-3.17951,-4.54152170.447599,1.698562,-2.487311,-6.2692670.477598,1.02119,-2.793293,-4.14799770.517576,-0.501377,-6.590234,0.06702470.547575,2.026873,-5.07095,0.19417770.577543,2.404992,-3.755348,0.37103970.617551,1.456103,-3.240863,0.91005370.64752,0.790158,-2.018851,0.84593470.677518,1.133374,-0.778671,0.79848570.717497,-0.00027,-1.908016,1.29855670.747495,-2.280217,-1.823556,3.47271470.777464,-2.146611,1.483445,3.13149370.817472,-3.508432,3.100446,3.09067570.84744,-3.776833,2.801047,5.87202870.877439,-4.422013,3.79519,4.42708670.917417,-3.38747,5.184085,2.35120870.947416,-4.066676,3.594132,1.2820670.977384,-4.0799,2.355917,-0.75128771.017362,-2.68427,1.260785,-3.97432471.047361,-1.519807,0.166673,-4.12939371.07736,-0.609582,-1.906337,-4.54773171.117338,0.062356,-3.45255,-4.80762171.147306,1.013715,-4.127363,-6.64679571.177305,0.374191,-3.383041,-2.80665271.217283,0.87327,-5.000653,-0.41329471.247282,2.139326,-4.291086,-0.3520271.277254,2.407107,-3.549189,0.2713571.317232,1.695224,-3.178587,1.00959671.347201,2.054854,-2.12907,0.97308371.3772,1.044132,-2.350545,0.27526971.417178,-1.421982,-3.04926,2.66538871.447176,-1.338684,-0.855335,4.37332671.477145,-2.279667,1.501559,3.24409671.517153,-2.565937,2.128222,5.18554471.547121,-4.398847,1.79887,5.06270171.57712,-4.266968,4.376795,3.41493371.617098,-4.48292,4.569303,1.74214171.647097,-4.690341,3.227361,0.37625371.677065,-3.792641,2.290565,-2.68520871.717043,-2.458698,1.391498,-4.29762271.747042,-1.168941,-0.867187,-4.2046771.777041,-0.578451,-2.729531,-4.96948171.817019,0.537311,-3.789527,-5.39760571.846987,1.099494,-4.730271,-5.40968271.876986,-0.279373,-4.988698,-2.1446171.916964,1.569827,-4.406842,-0.10479571.946963,2.067823,-4.384668,0.08321471.976961,1.789722,-4.363002,0.84513372.01694,1.191934,-2.877844,1.09760372.046908,1.646359,-1.744468,0.61726672.076907,0.243495,-2.347392,0.69355472.116885,-1.896031,-1.949296,3.5824672.146883,-1.926262,0.501549,4.0613672.176852,-3.439555,1.11834,2.43845272.21686,-3.220559,2.932938,5.41248772.246828,-5.114866,3.877837,4.86124572.276775,-3.930978,5.93384,3.24568572.316753,-4.436819,3.402404,1.63754972.346752,-4.553031,2.99218,-0.62862472.37672,-3.565011,2.781901,-4.04269172.416698,-1.905779,0.590842,-4.19336272.446697,-1.018663,-1.802853,-4.42143772.476696,0.238441,-3.104731,-4.74293372.516674,2.313907,-3.714137,-5.43361772.546642,1.343105,-3.386379,-5.46162172.576641,-0.217206,-4.020856,-0.97351972.616619,1.931368,-4.694219,0.03935272.646618,2.512145,-4.10581,0.22266672.676586,2.450946,-4.12141,0.71912672.716595,2.02567,-3.476198,0.98119172.746563,0.950275,-2.505268,0.5937572.776562,-0.814861,-2.099862,-0.19950672.81654,-2.284461,-0.541819,3.57514872.846538,-2.673846,1.020471,3.65095172.876507,-3.946531,2.27432,2.05287672.916485,-3.735184,3.918586,5.50716672.946483,-3.855302,3.661452,4.35241272.976482,-3.496083,3.342678,3.20506273.01646,-3.716921,4.703441,1.03395273.046429,-3.496001,3.583832,-1.16584873.076427,-3.051043,2.358971,-2.64396373.116405,-1.416648,0.682162,-3.09061373.146404,-0.38555,-1.644075,-3.57492773.176372,0.67605,-3.090651,-3.81105673.216381,1.776465,-4.821138,-6.96903573.256359,0.071595,-4.404111,-2.54986673.276337,0.386857,-5.314338,-0.05091473.316315,2.4425,-4.094793,0.00323473.346314,2.367151,-3.498381,0.16452473.376282,1.926832,-3.291479,0.75635573.41626,1.185782,-1.898457,0.51963773.446259,0.016528,-0.696716,-0.72875273.486237,-1.889182,-1.539949,1.31693973.516236,-1.913568,-1.206027,3.30072773.546204,-2.805898,0.822559,2.86275773.586182,-1.506254,3.957948,6.40545773.616181,-3.291273,2.274441,6.2220873.646179,-2.697187,4.078654,4.19353673.676148,-2.392013,3.891357,2.86523473.716126,-4.282361,3.082633,0.54894273.746125,-2.97877,2.292982,-2.33133473.776123,-2.025471,0.659215,-4.02360873.816101,-1.284808,-1.145771,-4.21154373.84607,-0.45284,-2.292951,-4.8721173.886078,0.667887,-4.273334,-5.33604273.916046,0.779605,-3.83869,-6.38525673.946045,-0.646331,-3.983972,-1.93249273.986023,1.324007,-4.100505,-0.42252874.016022,1.770084,-3.615061,-0.28889874.04599,2.097214,-3.339018,0.53069774.085968,0.82269,-2.712167,1.11867774.115967,0.793801,-2.136139,0.82012474.145966,-0.268886,-2.183617,1.33730874.185944,-1.78554,-0.59687,4.35040274.215912,-1.711142,0.928949,4.33217274.245911,-2.421292,1.575378,3.89073574.285858,-2.971086,2.224523,6.55241574.315857,-3.818543,4.180094,4.6139374.345825,-2.57831,4.434651,2.71713474.385803,-4.531287,2.225731,0.65380274.415802,-3.740948,2.424852,-3.08756974.445801,-2.626719,2.610332,-4.5980874.485779,-1.799174,-0.70583,-4.67598874.515747,-0.73098,-2.436282,-5.03269774.545746,-0.637166,-4.588863,-4.97017774.585724,1.193972,-3.825952,-6.71298474.615722,-0.185232,-2.37517,-2.31508974.645691,-0.208022,-5.590158,0.57525374.685699,2.006337,-4.214877,0.59535574.715668,2.345889,-3.07593,0.53268474.745666,1.989754,-3.45423,0.85962574.785644,1.558947,-2.736635,1.34304874.815643,0.349119,-2.073401,1.32345774.845611,-1.178478,-2.638315,3.32763674.885589,-1.478642,-0.394535,4.63198974.915588,-2.038115,2.293904,2.75255874.945587,-2.402832,2.436219,5.38180474.985565,-4.160848,2.177397,5.14601775.015533,-3.015222,4.751975,3.00091775.045532,-3.552901,3.391474,1.69673275.08551,-4.069277,2.888977,-0.15266375.115509,-2.421749,2.223595,-3.02190875.145477,-1.761739,1.279433,-4.16837975.185455,-0.49884,-1.484341,-4.15683275.215454,0.714724,-3.024285,-4.64270775.245453,1.679844,-4.05245,-6.17957875.285373,0.407355,-2.932074,-4.55849375.315341,0.579224,-3.451951,-0.66218875.34534,1.880692,-4.728884,-0.6075875.385318,2.330515,-4.504336,0.00905275.415317,2.55774,-3.730898,0.73907975.445285,2.436852,-2.400239,0.71699275.485263,0.596623,-2.161773,-0.08633275.515262,-0.25283,-2.740308,1.18991675.54526,-0.637656,-2.501982,4.07029275.585238,-2.914091,-0.648732,4.30797875.615207,-3.141304,2.795587,3.84826275.645205,-3.729838,3.144471,6.02173375.685184,-4.567925,2.61322,4.81327675.715182,-3.562694,4.622748,2.64544875.745151,-4.475257,3.214533,0.56715875.785129,-4.530175,1.953372,-2.33939375.815127,-3.330197,2.368442,-4.57743775.845126,-1.935249,1.334858,-4.79183775.885104,-0.85942,-1.75839,-4.33198575.915072,0.116578,-2.996014,-5.30947675.945071,0.519144,-4.710745,-6.10955175.985049,0.52248,-2.717875,-3.48232476.015048,0.369007,-3.556495,0.28056876.045016,2.113548,-5.127306,0.29545276.085025,2.748325,-5.075115,0.41954476.114993,2.638844,-4.259053,0.60391376.144992,1.662523,-2.778274,0.71131376.18497,1.020981,-0.973805,-0.0634476.214938,-1.131803,-2.214629,0.26711376.244937,-2.641033,-2.422086,3.84719676.284883,-2.152965,1.906688,3.21796276.314882,-3.426222,2.009494,3.79812276.34485,-3.202728,1.172363,6.3599776.384859,-3.576537,3.913979,4.40231176.414827,-2.603985,4.317141,3.32082776.444826,-3.802684,3.777734,2.09096376.484804,-2.985722,2.689741,-1.74332576.514772,-1.930029,1.128008,-3.4260476.544771,-0.951946,-0.835096,-4.20611276.584749,-0.001233,-2.143678,-5.11893276.614747,0.16677,-2.967818,-5.15103176.644716,0.391434,-5.176462,-7.46963776.684724,-0.032543,-1.320718,-2.16062376.714693,0.313961,-5.208314,0.24523376.744691,1.291199,-6.159065,0.29279776.784669,2.603643,-2.887148,0.36237476.814638,2.334253,-2.308309,0.45980476.844636,1.554466,-2.026853,0.26361976.884614,-0.808667,-0.640163,-0.06539576.914613,-1.445377,-0.401755,3.53851676.944581,-1.828649,0.136909,4.06568176.98459,-2.220127,2.520694,2.33266677.014558,-1.715662,2.809569,6.38854477.044557,-3.653028,1.937404,5.77753677.084535,-2.220556,3.289725,3.75839377.114503,-3.454752,3.171295,2.55757677.144502,-3.749149,4.208748,0.65596277.18448,-2.95767,1.888476,-3.44096777.214479,-1.846991,0.870091,-3.85764177.244447,-0.80492,-1.335252,-4.21171877.284407,0.588383,-3.716389,-5.42723677.314406,1.477325,-4.798605,-6.03527177.344405,2.714635,-2.761552,-6.61097677.384383,-1.528387,-4.634422,-0.57445777.414351,1.183085,-5.031683,-0.62598177.44435,2.143691,-3.579407,-0.53337177.484328,2.452528,-4.319442,0.02939377.514327,1.989338,-3.857932,0.14264177.544295,1.051513,-2.435658,-0.40360777.584273,-0.532619,-2.044405,0.55158877.624281,-2.604643,-0.674249,3.90111777.64427,-2.597223,1.380047,3.63183677.714217,-2.789038,2.362059,6.51944377.724227,-3.168951,2.088196,6.60253277.744216,-3.812713,2.556061,5.59779177.784194,-2.810985,3.887793,3.56838977.814192,-3.882249,3.368172,2.59367377.844161,-3.889266,3.350963,0.66742477.884139,-2.624166,1.867955,-3.19199377.914137,-1.414453,1.126206,-3.57715277.944136,-0.830584,-1.031481,-3.94931377.984114,0.165127,-2.800642,-4.45466678.014082,0.902012,-4.246334,-5.03460578.044081,0.935153,-2.880693,-4.94900778.084059,-0.17327,-4.585777,-0.08952878.114058,1.631064,-5.765172,-0.36910778.144026,3.227348,-4.327561,-0.5689878.184004,3.487439,-4.100823,-0.58705278.214003,2.897243,-3.816328,-0.16990578.244002,1.976553,-2.823407,-0.49543478.283948,-1.441929,-2.022689,-0.20727578.313916,-2.687953,-1.802185,3.10681178.343914,-2.928099,0.823337,3.15569878.383893,-3.030843,4.104002,4.77546878.413892,-3.472337,2.760717,6.65891678.443859,-4.467662,3.970161,4.92203478.483837,-2.874185,4.114983,3.11263678.513837,-3.802799,3.53323,2.19199478.543804,-3.634737,2.891381,-1.332778.583813,-2.416976,2.395366,-4.59870178.613782,-1.493261,0.311496,-4.34502678.643781,-0.5785,-2.404356,-5.13084978.683758,0.292788,-4.848059,-4.89232578.713727,0.970793,-4.329813,-7.88345478.743726,0.269399,-2.875777,-2.13252878.783703,0.65999,-6.792596,0.21143578.813702,2.841749,-4.517222,-0.00648578.843671,3.14219,-3.602437,-0.21659778.883648,2.139082,-3.372984,-0.11035378.913647,1.395181,-2.530057,-0.46667378.943645,-0.722987,-2.406702,-0.13691978.983624,-2.375087,-1.319332,3.48440179.013592,-2.346512,1.457312,3.99467179.04359,-2.697918,2.089298,3.05108279.08357,-3.411023,2.465195,5.8991879.113568,-4.109371,4.303858,5.33142279.143536,-2.265303,4.511414,3.733579.183515,-3.503918,3.583895,1.89982279.213513,-3.61662,4.10421,-0.19733179.243512,-2.154693,2.589903,-2.3167979.28345,-1.989468,0.080834,-3.76774479.313418,-1.265177,-0.947041,-4.52460879.343418,-0.048854,-1.845127,-5.08890279.383395,0.266768,-5.427728,-6.3907979.413394,-0.40464,-4.973517,-5.96699779.443363,-0.040085,-3.097437,-0.33287179.483341,1.212483,-5.542554,0.42088879.513339,1.917983,-4.46113,0.69795579.543308,2.170443,-3.441631,0.98866379.583317,1.821601,-2.354703,1.02513179.613284,1.028998,-1.932301,0.89622979.643283,-0.230907,-2.475153,1.43634679.683262,-1.886952,-1.106615,4.11157679.713229,-2.043465,0.959522,3.95191679.743228,-2.99811,1.589806,3.95035879.783207,-3.697932,2.610171,5.42394879.813206,-3.76092,4.829944,3.7639479.843173,-2.932304,3.891178,2.55569479.883152,-4.519562,3.010882,0.71079679.913151,-3.063956,3.637259,-2.13505179.94315,-2.293817,2.196252,-3.53121779.983127,-1.243232,-0.682071,-3.84830680.013096,-0.17624,-2.524415,-4.45484180.043095,0.105303,-4.238081,-4.66224880.083072,2.00934,-2.923121,-6.72959280.113071,0.12042,-3.36474,-2.05977680.14304,-0.707455,-6.993325,-0.00135280.183017,2.584329,-3.905964,-0.02989980.213016,2.675533,-2.437951,-0.33259180.252995,1.880877,-2.773245,-0.09100980.282938,1.516398,-1.602303,0.37372180.312907,0.706464,-1.029331,-0.15408280.342905,-1.798444,-2.423242,2.49745680.382883,-1.308761,0.738995,3.91962680.412852,-1.98475,3.019049,3.00390580.45286,-2.145826,2.187583,6.4574580.482829,-3.230156,2.308034,4.99481280.512827,-1.656293,3.632339,3.27163180.552805,-3.34195,3.887578,1.37718180.582774,-3.146165,3.514365,-1.12673480.612772,-2.536911,2.04788,-3.12555680.65275,-1.960311,0.542221,-3.92709380.682749,-1.096496,-0.733298,-4.6754180.712717,-0.305397,-2.098011,-4.72611880.752695,-0.05567,-5.318806,-7.33489380.782694,-0.58055,-3.791157,-3.03830980.812693,0.148028,-5.196587,0.79860380.852671,2.180617,-4.175921,0.4234380.882639,3.001307,-3.412331,0.47396880.912638,2.491878,-4.047511,0.61274580.952616,0.772873,-2.885562,-0.05842780.982615,0.47481,-0.335137,-0.18359281.012583,-1.919849,-1.060788,2.67566981.052561,-2.388987,-0.341978,3.86223581.08256,-1.677194,4.080244,1.96918481.112528,-2.165034,3.334761,5.759981.152537,-3.828292,2.231961,4.80562881.182505,-2.406915,3.704165,3.37872281.212504,-3.269105,3.736713,2.2333881.252482,-3.010841,3.40389,-0.46531881.282434,-2.27865,2.428485,-3.03490181.312433,-1.202015,1.196591,-4.06419481.352411,-0.286483,-1.72265,-5.07676881.38241,0.357192,-2.981333,-5.84105881.412378,1.396679,-4.742089,-7.03685681.452356,-0.499117,-2.723465,-3.31981881.482355,-0.409403,-5.231644,0.06168281.512354,1.187081,-5.093694,-0.20420281.552332,1.780584,-3.617089,-0.02120581.5823,1.407379,-3.981957,0.43373181.612299,1.153858,-3.019774,0.76500681.652277,0.463403,-2.27596,0.20966381.682245,-0.671992,-2.72822,2.99803281.712244,-2.765433,-2.480858,4.15872881.742242,-2.238041,0.946275,2.96108481.782221,-3.047195,2.24612,5.60546781.812189,-4.586462,1.346231,6.06553681.852167,-3.684021,5.792913,3.63684181.882166,-3.48841,5.166682,1.94122781.912164,-4.692329,2.947946,0.52768981.952142,-3.073249,2.607158,-3.59930581.982111,-1.908822,2.246107,-4.39239882.012109,-1.414388,-0.722388,-4.6801382.052087,-0.462538,-3.297322,-5.12267782.082086,-0.180911,-5.978494,-5.42737882.112054,1.119179,-3.908976,-7.00741782.152033,-0.534111,-3.872876,-0.34246482.182031,1.004805,-6.462044,0.38411982.212,2.788461,-4.475404,0.24096682.251978,2.222199,-3.571093,0.4357482.281935,1.350934,-2.702609,0.6655482.311934,1.206123,-1.319031,0.54718982.351912,-1.286517,-1.579348,1.88243282.38188,-1.250229,-0.369012,5.30787282.411879,-1.33308,1.066779,5.48852382.451857,-2.074867,1.913718,4.84415882.481856,-2.251353,1.94044,6.11214882.511824,-3.33031,2.598018,4.25932582.551802,-3.367153,4.090021,1.60727582.581801,-4.533826,4.314683,0.03124682.611769,-3.804335,3.341734,-1.76286682.651778,-3.051217,1.145122,-4.2231682.681746,-2.432584,0.068144,-4.86813682.711745,-1.020163,-1.33253,-4.98815382.751723,-0.825505,-4.471058,-5.47348582.781691,-0.640244,-4.968878,-6.33906282.81169,0.071389,-3.027047,-1.38362582.851668,1.021287,-5.852408,0.02319682.881667,1.963264,-5.223831,0.00687182.911635,2.099936,-4.240978,0.32836382.951613,1.298589,-3.011579,1.06387982.981612,1.136878,-2.811359,1.38114783.01158,0.411565,-3.065613,1.4734783.051589,-0.928646,-1.522792,4.3589883.081557,-1.774486,-1.347391,4.90636183.111556,-2.218854,1.259985,3.81410583.151534,-2.826011,3.131775,5.47387983.181502,-3.512039,2.86541,5.28020783.211501,-3.42903,3.545648,3.4026483.251479,-3.908084,3.256872,1.03943583.281436,-3.882509,3.766235,-0.75973483.311404,-2.6934,2.829351,-3.09746983.351382,-2.02882,0.152815,-4.3728783.381381,-0.807121,-1.299178,-4.95011683.411379,0.433966,-2.864595,-5.15541883.451357,0.677111,-5.854842,-7.18987683.481326,0.528346,-5.774164,-4.79923483.511325,-0.624067,-5.04363,-0.01426983.551303,1.866246,-3.269561,-0.10534883.581271,1.567504,-3.196022,-0.13837683.61127,1.317536,-2.78459,-0.06540183.651248,1.045813,-1.710174,0.33766983.681246,0.579499,-1.571492,0.18668183.711215,-0.426102,-1.67062,1.11140583.751193,-1.467837,-0.335184,4.34241683.781191,-1.466223,1.523714,3.95836183.81119,-1.584023,3.882829,3.14882283.851168,-2.4734,1.736782,6.08823683.881137,-3.144066,1.881042,4.6252683.911135,-2.633405,3.413686,3.22854983.951113,-3.693839,4.312925,1.60528483.981082,-2.371805,2.920436,-0.08550684.01108,-1.257652,0.534363,-1.94691184.051058,-0.426883,-0.61717,-3.33491284.081057,0.438602,-1.454868,-3.35690884.111025,0.621148,-3.030252,-3.93067184.151003,1.186295,-4.202302,-7.27653184.181002,0.48385,-3.907204,-4.38628684.211001,0.262293,-6.33399,-0.72633484.250979,2.854807,-5.611986,-0.44103784.280924,3.086979,-3.011485,-0.77218484.310923,2.29086,-3.378254,-0.42689184.350901,1.566455,-1.920252,-0.17458384.380869,0.539085,-0.679895,-0.52377284.410868,-1.532479,-0.070892,1.25810384.450846,-1.735659,1.108994,2.67334684.480845,-2.633512,1.877464,2.66510684.510813,-2.082567,5.350785,3.45847184.550791,-3.110865,3.941987,4.67258984.58079,-2.667146,4.112454,3.21817584.610789,-1.916342,3.662569,2.1773784.650767,-3.088091,3.551787,1.07748484.680735,-1.792849,2.475367,-0.22298684.710734,-1.110685,-0.269779,-1.81584184.750712,0.026751,-1.224651,-3.23474784.78068,0.599255,-2.151612,-3.72165684.810679,1.084057,-3.551644,-3.626484.850657,1.177386,-6.676442,-7.29103584.880656,-0.510317,-3.376716,-2.94259884.910624,-0.280487,-3.278869,-0.40484884.950602,0.87428,-3.218835,-0.41489884.980601,1.797486,-2.256226,0.1701285.010569,1.872857,-2.737823,0.66824485.050578,1.392071,-1.280364,0.08719885.080546,-0.106398,-0.634709,0.1493485.110545,-0.898391,-1.273964,3.59427785.150523,-2.095318,0.694642,4.67952585.180491,-2.016539,2.491897,2.98455985.21049,-1.947772,2.605854,5.87188485.250468,-3.439843,2.634623,4.94979785.280413,-1.675726,3.919831,3.23758785.310381,-3.60145,3.521331,1.39842785.350359,-2.640374,3.689756,-0.96444885.380358,-1.581329,0.172999,-3.25975885.410326,-0.939872,-1.487453,-3.84502885.450334,-0.021275,-2.266976,-4.61229485.480303,0.450237,-3.609218,-3.7621985.510301,1.317121,-5.8743,-5.47806285.55028,1.077271,-3.769751,-4.28820385.580248,0.361467,-2.397271,-0.56860585.610247,0.370407,-5.010844,-0.54696585.650225,2.044615,-2.342872,-0.15273785.680223,2.503454,-1.77671,-0.05711685.710192,1.203705,-2.846013,-0.32991385.75017,0.162965,-0.756775,0.25756185.780168,-0.667031,-0.04496,2.38485585.810137,-2.473135,-0.767043,3.75921485.850145,-2.549654,0.836831,4.13804185.880113,-1.89261,4.775878,3.68465585.910112,-2.849873,4.071737,5.81684985.95009,-2.965047,3.420691,4.23087785.980059,-2.884038,4.691933,2.80010486.010057,-3.301974,5.617351,1.20828286.050035,-1.929741,2.852915,-1.64799886.080034,-1.568697,0.528895,-3.4459686.110002,-0.827642,-0.630142,-4.45793786.14998,-0.056949,-2.081618,-4.6369586.179979,0.243201,-3.866888,-4.88125886.209947,-0.16743,-6.429241,-7.81876986.249926,-0.147124,-3.218249,-3.35860186.279887,-0.204489,-3.414518,-1.12532886.309886,0.353361,-4.104678,-0.84058786.349864,0.604836,-2.163888,0.1600486.379832,0.98094,-1.808971,0.09769986.409831,1.375965,-2.012856,0.13010286.449809,-0.663977,-2.009084,1.87899786.479808,-0.594885,-0.338187,4.49546886.509776,-1.195833,1.072633,5.49838586.549754,-1.302108,2.422371,4.2931386.579753,-2.169387,1.29528,6.71705986.609721,-3.4119,1.986624,5.58276386.649699,-2.039775,4.944766,2.97593486.679698,-3.707482,3.735789,1.61927886.709697,-3.185805,3.778581,-0.43941886.749675,-2.219672,1.620373,-3.86332286.779643,-1.519732,0.738705,-4.10700786.809642,-1.180506,-1.042217,-4.53076686.84962,-0.365571,-3.151558,-4.59416786.879588,-0.058565,-6.060177,-5.94691786.919597,-0.602076,-3.335125,-4.42828186.949565,-1.056113,-2.457381,-0.58589886.979564,0.024145,-4.58385,-0.42023987.019542,1.118448,-3.016014,0.15076987.04951,1.404311,-2.640642,0.52291287.079509,1.452709,-2.189457,0.95127287.119487,0.450255,-1.952395,0.85692187.149486,-1.038208,-1.020342,3.25928587.179454,-0.776301,0.572365,5.25233487.219432,-2.477537,1.680472,3.99692887.249431,-1.653092,3.14524,5.7808887.279364,-2.345429,2.522745,6.90405287.309363,-3.022231,3.630459,4.87283187.349341,-2.520082,3.941134,2.91890587.37934,-3.857685,4.020623,0.87557387.419318,-2.75882,2.101716,-2.96899487.449286,-1.68287,0.831151,-4.07159487.479285,-1.310259,-0.415285,-4.26593587.519263,-0.477337,-2.062898,-5.12969887.549261,-0.050142,-3.454523,-5.34885587.57923,0.57307,-4.691206,-7.15427287.619208,-1.014387,-3.917705,-1.98961587.649207,0.203796,-3.967582,-0.57518187.679175,1.185729,-3.116484,-1.04139687.719183,1.392045,-2.710681,-0.3735787.749152,1.717188,-2.936193,-0.00781587.77915,1.149446,-2.483404,-0.50726187.819128,-1.169139,-1.02124,0.82052987.849097,-0.730148,-0.645341,4.04091287.879095,-1.614007,-0.290216,4.96369687.919073,-2.611927,1.798724,3.17224787.949072,-1.359786,3.644503,6.23632387.979041,-2.946072,1.422348,6.2980188.019019,-2.74444,3.273392,3.66008588.049017,-3.475655,4.572962,2.08106788.078986,-3.557886,4.250161,0.33672288.118994,-3.389607,1.530054,-3.7345688.148962,-2.23727,1.055322,-4.24193388.178961,-1.222548,-0.205971,-4.29465488.218939,-0.133691,-2.515041,-5.16768688.248907,1.0977,-5.06357,-5.63331388.278906,0.979106,-3.919937,-7.67749888.318858,0.126898,-2.732294,-0.21386188.348857,1.533257,-4.947467,-0.04614788.378825,1.777457,-3.799634,-0.35262588.418803,2.001514,-2.917126,0.47047188.448802,1.753683,-2.660438,0.47632488.47877,0.875368,-2.604327,-0.41950288.518779,-2.200792,-1.974668,0.51551288.548747,-1.801239,0.627227,3.94345988.578746,-2.041317,2.448082,4.81117388.618724,-2.36084,2.979606,4.05589488.648692,-2.264218,1.268344,6.55991988.678691,-3.837774,2.189123,4.9798788.718669,-2.913341,3.031021,3.36843288.748668,-3.947018,4.359213,2.41808288.778636,-3.249174,4.565372,0.38065388.818614,-2.652013,1.473887,-2.74728688.848613,-1.711943,0.525841,-3.5486188.878581,-0.942783,-0.972896,-4.05259788.918559,0.642266,-2.798549,-4.48719388.948558,1.418979,-3.492392,-7.63513588.978557,-1.933076,-3.079237,-3.96521489.018535,0.450368,-4.697288,0.32918789.048503,1.720499,-3.480711,-0.30136289.078502,2.493183,-2.793535,-0.23611989.11848,2.12764,-3.615092,0.03872389.148479,1.355985,-2.801231,-0.17642489.178447,0.396759,-1.434411,-0.28800289.218425,-1.556421,-1.635905,2.78249289.248424,-2.028846,-0.718824,4.0038689.278392,-2.725364,1.728393,2.82246689.318334,-1.478406,3.301564,5.8918189.348333,-3.063282,1.301532,6.32089789.378332,-2.616892,2.697038,4.21409689.41831,-3.163244,3.286243,2.81323689.448278,-3.522419,3.849581,0.57845989.478277,-2.850775,2.653363,-3.30114889.518255,-1.574639,1.692685,-4.22584289.548223,-0.974252,-0.320834,-4.73250889.578222,-0.237716,-1.777364,-5.35396589.6182,0.453075,-4.080166,-7.56778289.648198,-1.149439,-2.69737,-4.28068489.678167,0.284581,-3.195481,0.19300189.718145,1.600345,-4.142756,-0.55707889.748144,2.280901,-3.235617,-0.68923989.778142,2.35378,-3.165852,-0.5024389.81812,0.811378,-2.773155,-0.36561789.848089,0.057867,-2.22099,-0.73144289.878087,-1.106269,-0.92854,0.65308589.918065,-2.438099,-0.723846,4.158789.948034,-3.074372,0.774276,3.23900989.978032,-3.084722,3.657586,3.04255890.01801,-3.504046,2.762003,5.97214290.048009,-4.042292,2.735792,4.38384190.077978,-2.539479,3.354415,3.16340590.117956,-3.315003,5.213616,1.64871290.147954,-2.706288,4.128339,-0.60362890.177923,-2.119325,1.433394,-2.72433690.217931,-0.719342,-0.211714,-3.68086190.247899,0.001055,-1.5871,-4.50870490.277898,0.79859,-2.560487,-4.45357490.317846,1.231226,-3.435011,-7.60465690.347814,-0.784209,-3.23735,-2.52718690.377813,0.820068,-4.558321,0.08182990.417791,1.63564,-3.570791,-0.51675390.44779,1.735019,-2.594626,-0.06060390.477758,1.227725,-2.551745,0.46775990.517736,1.256766,-1.805829,-0.12678990.547735,-0.398022,-1.658435,-1.11179590.577703,-1.251174,-1.216718,2.02885790.617681,-1.534799,-0.633326,4.06021590.64768,-2.710982,1.521829,2.14232590.677679,-1.170395,3.946232,5.54287690.717657,-3.323847,1.601195,5.45609290.747625,-2.749868,3.158792,3.98417690.777624,-2.853435,3.834857,2.89274890.817602,-3.752595,3.848331,0.79307990.84757,-2.706111,2.239403,-2.38364490.877569,-2.237288,1.24557,-3.62361890.917547,-1.569169,-0.552264,-4.41707690.947546,-0.914867,-1.768683,-4.77533890.977514,-0.116818,-3.856424,-5.25907791.017492,-0.842119,-3.844536,-4.72287491.047491,-0.232815,-3.276406,-0.2867391.077459,1.185708,-5.100894,-0.38440991.117468,2.332347,-3.444949,-0.53435691.147436,2.777404,-2.687606,-0.09768691.177435,2.183646,-2.770419,-0.12470991.217413,0.858696,-2.138562,-0.59569791.247381,-0.621798,-1.79865,0.87877991.27738,-1.041245,-1.327374,3.42586791.317316,-2.125294,1.065746,4.04864291.347315,-2.0373,3.10083,2.90438391.377283,-2.077407,3.102335,5.7878291.417261,-3.603149,1.645918,5.19276991.44726,-2.44515,3.330259,3.56291.477228,-3.34107,3.874957,2.35434691.517206,-3.385504,3.308088,-0.33345791.547205,-2.661306,1.539564,-2.59945891.577204,-1.785231,0.976583,-4.03798191.617182,-0.442378,-0.557364,-4.72515391.64715,0.179818,-2.633548,-4.702491.677149,0.457332,-4.834471,-5.50134491.717127,-0.202541,-2.807496,-5.13631691.747095,0.450982,-2.277829,0.25561391.777094,0.951274,-4.771586,0.383591.817072,1.871218,-3.969087,0.18146191.847071,2.641738,-3.129529,0.02690791.877039,2.159042,-2.868179,-0.09824191.917017,0.913934,-1.769182,-0.35129891.956995,-2.030626,-1.986005,-0.18295391.976984,-2.628496,-0.969526,1.70397292.016992,-1.587678,1.515153,4.071192.046961,-3.360419,2.279881,1.94718592.076959,-1.482447,4.117268,5.38972592.116938,-2.97492,2.538283,5.74794992.146906,-2.448862,2.652782,4.24122992.176905,-2.865406,3.103783,3.48815692.216883,-2.971158,3.542161,1.64864692.246881,-2.892281,1.232823,-2.34628192.27685,-2.284348,0.983272,-4.67420492.31681,-0.608392,-0.693433,-4.82348292.346808,-0.429503,-2.000625,-5.44509892.376777,0.593649,-3.137657,-5.56706392.416755,-0.914747,-5.570821,-5.22582692.446754,-2.288198,-6.317415,-0.86165592.476752,1.184077,-2.740148,-0.01912792.51673,0.860518,-2.299008,-0.2755792.546699,0.634132,-1.817394,0.50075592.576697,1.386868,-0.827514,0.59797792.616675,1.143153,-1.319998,-0.19592892.646644,-1.044141,-2.706791,-0.14569492.676642,-1.294074,-0.377332,3.42869392.71662,-1.321707,2.435349,4.08300792.746619,-1.922427,2.808313,2.62326692.776587,-0.92575,2.668889,6.16548392.816566,-2.990153,2.555316,4.55536292.846564,-1.883351,2.974026,3.50501792.876563,-3.467688,3.289851,2.61969592.916541,-2.515508,4.468788,0.4349192.946509,-1.883234,1.770218,-1.73828992.976508,-1.695667,-0.008796,-2.82362793.016486,-0.461014,-1.486256,-4.07382793.046454,-0.009233,-2.54185,-4.15056793.076453,0.653011,-3.688524,-5.32860193.116431,-1.673405,-5.955443,-4.55420493.14643,-1.294103,-6.709937,-0.53142593.176398,1.470224,-3.925429,-0.43104893.216376,2.198207,-2.726682,-0.33098593.246375,1.980961,-3.305603,0.03935493.276343,1.544312,-2.459929,0.10691493.3163,0.773748,-1.50068,-0.45813193.346268,-0.819478,-0.994965,0.3639993.376267,-1.263199,0.837966,3.70956593.416245,-1.825069,2.109416,3.60609893.446213,-2.490685,3.144134,3.10604193.486191,-2.383659,2.441497,6.09526593.51619,-3.313767,3.201535,4.19391793.546189,-2.33106,3.921291,3.18254293.576157,-3.698246,4.825347,2.33641493.616135,-2.786211,3.407347,-1.13859593.646134,-2.400507,1.842334,-4.40798593.676102,-0.746399,0.568599,-4.25828993.71608,-0.352868,-1.849342,-5.36345493.746079,0.60998,-2.2318,-5.66246593.786057,0.387109,-3.931946,-6.64905193.816056,-1.410476,-3.874712,-1.80320693.846024,2.01414,-3.008038,-0.07292493.886002,2.01316,-4.03718,-0.14095293.916001,2.67251,-4.23645,0.68782593.946,3.328668,-3.292597,1.11446393.985978,2.137977,-2.197344,0.32032794.015946,-0.772715,-2.314131,-1.14427994.045945,-2.573361,-2.990008,0.7961194.085923,-2.947041,0.215017,4.04036294.115891,-4.173748,2.705686,2.31544394.14589,-3.768531,2.013136,5.22400594.185868,-3.330063,2.446238,5.78687294.215867,-3.665754,3.562193,4.01290194.245835,-2.963475,3.537008,3.10572294.285791,-2.947372,5.284609,1.44134194.31579,-2.007716,2.322708,-1.44413194.345788,-2.05547,-0.146568,-3.24407294.385766,-0.242707,-0.936455,-4.28821994.415735,0.666157,-1.391894,-5.23172594.445733,1.972004,-2.453028,-5.26302394.485711,-0.056224,-3.886759,-8.37494794.51568,0.254811,-2.535207,-1.25925494.545679,2.996737,-3.023953,0.38895394.585657,1.882674,-4.760862,-0.61161894.615655,2.944497,-3.931861,0.23283494.645624,3.862486,-3.055896,0.72999694.685602,2.529848,-2.792093,0.11673794.7156,-0.253215,-2.468345,-1.55134194.745599,-2.602421,-1.491186,-0.10668594.785577,-2.215072,-0.563839,3.48106194.815545,-5.303315,0.818817,0.8766194.845544,-5.879965,1.99353,2.68223394.885522,-3.636143,3.577763,5.83343694.915491,-4.685473,3.735608,3.48818494.945489,-3.780009,3.208653,2.97723794.985467,-2.913622,5.446507,2.18128395.015466,-2.122993,2.647087,-0.94778195.045434,-2.065387,-0.426885,-3.29952195.085412,-0.363482,-0.774986,-4.02315695.115411,0.232738,-1.279315,-5.23656495.14541,1.170743,-2.682154,-5.10219995.185388,-0.313976,-4.77758,-7.30124495.215356,0.674696,-1.993956,-1.52696795.245355,1.417356,-4.024929,-0.34467695.285333,1.819636,-4.682583,-1.25932795.315267,2.576853,-3.813937,-0.64708595.345266,2.602044,-3.193144,-0.41720195.385244,1.94623,-2.792152,-0.44216695.415243,0.177801,-2.771513,-1.06612495.445211,-2.257936,-2.400677,-0.24152495.485189,-1.514237,1.503177,3.37637695.515188,-2.618127,2.054516,1.79435595.545187,-4.309573,0.734973,2.57734495.585165,-3.198503,3.529754,5.51883495.615133,-3.885346,4.426822,4.23591795.645132,-3.072032,3.193286,3.53876695.68511,-2.280281,6.113002,2.95892695.715109,-0.944313,3.72635,-0.23491795.745077,-1.130995,-0.423685,-2.8951295.785055,0.365466,-1.56411,-3.55942195.815054,1.251486,-1.772562,-4.54731595.845022,1.89143,-2.540957,-4.76378195.885,0.318669,-6.342754,-8.25731495.914999,-0.899253,-3.033017,-4.78729795.944998,0.675574,1.544153,-0.81743995.984976,-0.848469,-3.25155,-1.01844396.014944,-0.443638,-3.534596,-0.3476396.044943,1.197852,-2.180778,0.27741496.084921,0.312912,-2.889951,0.4241696.114919,-0.191808,-1.586598,0.12813696.144888,-0.668286,-0.106338,0.82370796.184866,-0.980836,-0.254556,3.31617196.214864,-1.235521,0.201007,2.31043296.244833,-0.681485,2.027817,3.58970396.284841,-0.854648,2.180257,5.81140896.314773,-2.104721,2.542107,4.81828896.344771,-1.574526,3.331197,4.11290596.384749,-2.345521,5.464761,3.21587396.414718,-1.864035,1.822519,-0.04810596.444716,-2.021472,-0.61392,-3.16716396.484694,-0.906007,-0.372855,-4.39649496.514693,-0.09692,-1.125125,-4.89242196.544661,0.702449,-2.56206,-4.65569896.58464,-0.077653,-5.007933,-6.44108996.614638,-0.211062,-2.068509,-1.64950196.644607,0.919922,-1.555606,-0.22066196.684615,0.894119,-4.254314,-1.39286996.714583,1.364814,-3.887904,-1.18061896.744582,1.847701,-2.247391,-0.65476596.78456,1.164549,-3.001765,-0.65813496.814528,0.013745,-2.880258,-0.77319896.844527,-0.269931,-0.74885,1.36817896.884505,-1.404174,1.291557,3.55121796.914504,-1.168732,3.329424,2.21838696.944472,-0.818732,2.507049,4.6290296.98445,-2.989732,0.829422,5.14854497.014449,-2.445027,4.140601,3.76180497.044448,-2.7932,4.514992,3.08892797.084426,-3.466116,3.695238,1.35690897.114394,-2.5817,2.381988,-0.88458897.144393,-1.532819,1.398806,-2.75826297.184371,-0.541817,-0.774261,-3.55923597.21437,0.012143,-1.945442,-4.13488197.244338,0.558122,-3.833414,-4.0149897.284316,0.439614,-5.269938,-5.95772597.314281,-0.489851,-4.007875,-1.18437497.344249,0.698127,-3.636813,0.25587897.384227,1.870351,-2.667281,0.01492497.414226,2.158716,-2.132921,0.21946397.444225,2.34533,-2.348694,0.25417697.484203,0.308924,-2.200486,-0.43751897.514171,-0.834987,-0.317235,-0.04206597.54417,-0.58278,1.077783,2.73865797.584148,-2.296948,0.806177,2.54325597.614147,-1.694822,2.23692,3.19055297.644115,-1.141639,2.964768,5.4476697.684093,-2.670286,3.653829,4.01203197.714092,-1.572643,2.544773,3.31663997.74406,-3.05637,3.155827,2.80721997.784068,-1.903065,4.632017,0.36309397.814037,-1.740662,1.092256,-1.97080997.844035,-1.32057,-0.639885,-2.83591897.884013,-0.217045,-1.770965,-4.1562597.913982,0.464822,-2.701022,-4.5189497.943981,0.997739,-4.529703,-7.31250297.983959,-1.559071,-4.218489,-1.89047798.013957,0.409006,-2.513029,0.72587698.043926,1.205974,-2.971342,-0.25112198.083904,1.219575,-3.035718,-0.1077898.113902,1.511358,-2.24936,0.00738798.143871,1.44016,-1.481725,-0.35316698.183879,0.675097,-1.913342,-0.65823198.213847,-0.88726,-1.992033,0.73129698.243846,-0.590508,-0.407677,3.26501998.283824,-1.752761,-0.111483,2.67297398.313753,-2.328566,0.835443,4.2733698.343751,-2.49763,1.823103,6.07705798.383729,-3.359335,3.781022,3.93809898.413728,-3.036231,2.583519,3.21352798.443696,-3.967619,4.112498,2.48190998.483674,-2.762589,4.286315,-0.81463398.513673,-2.229141,1.936557,-3.43149898.543672,-0.847511,0.68312,-3.75831498.58365,0.164731,-1.367413,-4.76299198.613618,1.036607,-2.537997,-4.90946698.643617,1.447249,-4.069854,-7.41870298.683595,-0.80873,-2.982375,-0.80840998.713594,1.692925,-2.65175,1.16246898.743562,2.112762,-3.137821,0.52377298.78354,2.116489,-4.131416,0.78398998.813539,1.545447,-3.164279,0.73618398.843507,0.972691,-1.639159,0.19354298.883485,-0.180715,-1.553666,-0.82151498.913484,-1.423558,-0.835856,0.83228698.943483,-1.796458,0.565442,3.47455898.983461,-2.489481,2.048857,1.37021499.013429,-1.640869,4.337235,3.71960999.043428,-1.033448,2.153912,5.94166599.083406,-1.039027,1.31667,4.0290199.113405,-2.078886,1.342039,3.01377599.143373,-2.963842,3.230665,1.78000499.183351,-2.543771,1.909309,-1.27486599.21335,-1.984946,0.534356,-3.80529799.243318,-0.837933,0.347229,-4.30839299.283326,0.352987,-1.192612,-5.2634899.313265,1.639902,-2.579168,-4.97010299.343264,1.841695,-3.74315,-8.28520899.383242,-0.785192,-1.642688,-1.99510899.41321,1.311477,-4.571093,0.54320599.443209,0.902269,-4.786143,-0.76066399.483187,1.667136,-3.086966,-0.65814999.513185,2.027247,-3.142853,0.0378899.543154,1.644167,-3.186292,-0.27007599.583132,-0.289425,-2.460346,-0.99439599.61313,-0.765107,-0.629024,2.20096799.643129,-1.209906,-1.179323,3.97609999.683107,-2.821657,0.049446,2.40249199.713076,-2.049794,2.491089,5.36343799.743074,-2.328188,0.893994,6.8564199.783052,-3.621397,1.757036,4.54776699.813051,-2.944544,3.176107,3.39205399.843019,-3.91373,4.871102,2.36073399.882997,-3.012386,1.968854,-0.5580499.912996,-3.116012,-0.589216,-3.67435299.942964,-1.504618,0.531518,-4.68901299.982942,0.332124,-0.414761,-5.437719100.012941,1.084281,-2.772133,-5.531984100.04294,1.161674,-4.124742,-8.047114100.082918,0.177875,-2.711756,-1.511376100.112886,2.167999,-4.709313,-0.01518100.142885,2.525906,-4.616078,-0.96507100.182863,2.591725,-3.752145,-0.393761100.212862,2.184866,-2.511213,0.199748100.25284,0.821502,-1.159124,0.220655100.282808,-0.918648,-1.928074,-0.226883100.312773,-1.729957,-2.110194,1.838728100.342741,-2.062678,-0.275395,3.818328100.38275,-2.880628,2.440655,2.620662100.412718,-1.739087,2.373891,5.879929100.452696,-3.476461,0.53616,5.316638100.482695,-3.763838,1.371206,3.88157100.512663,-3.332555,2.641061,2.942737100.542662,-3.738494,4.946741,1.587989100.58264,-3.071524,2.10427,-1.991271100.612639,-2.350263,0.239866,-3.324264100.642607,-0.847415,0.036353,-4.29108100.682585,1.036081,-1.129711,-5.081068100.712584,1.867919,-3.518671,-4.314731100.752562,0.087441,-3.203216,-6.406441100.782561,1.063254,-1.760605,-0.434324100.812529,2.107488,-4.044753,0.39192100.852507,2.478098,-4.052147,-0.659688100.882506,2.65265,-3.868913,-0.721761100.912504,2.200052,-3.47613,-0.723258100.942473,1.335384,-2.744218,-0.54154100.982451,-0.088429,-2.051977,-0.47056101.01245,-1.520789,-1.523786,0.526502101.052428,-1.714597,0.054127,4.001668101.082426,-2.874123,1.960312,2.154882101.112395,-2.610507,3.688792,4.027438101.152373,-2.319738,1.741985,5.734275101.182371,-3.16669,1.218612,3.905002101.21234,-2.687487,2.000701,2.781818101.242338,-3.663043,4.022639,1.738487101.282316,-2.677818,2.987487,-1.088054101.312274,-2.497553,0.267355,-3.271386101.352252,-0.496983,-0.179417,-4.102606101.382221,0.45355,-1.375455,-5.093068101.412219,1.283428,-2.414402,-5.37363101.452197,1.346601,-4.086663,-7.932157101.482196,-0.402155,-3.848347,-2.32953101.512164,1.629659,-3.941825,0.5666101.552142,2.041333,-3.889478,-0.424883101.582141,2.094027,-2.964071,0.068172101.61214,1.781794,-2.130797,0.571406101.652118,1.855708,-2.101041,-0.079899101.682086,0.244984,-2.49726,-0.88508101.712085,-2.094771,-2.158114,-0.148242101.752063,-1.883558,0.085912,3.571429101.782062,-3.578724,0.985307,2.800755101.81203,-2.826145,3.665375,4.064009101.842029,-2.227253,3.38402,6.231347101.882007,-3.562627,2.419486,4.12968101.911975,-2.602336,2.293524,3.082091101.951984,-3.686065,4.377921,1.618622101.981952,-3.086889,3.050592,-0.941191102.011951,-2.948462,0.636906,-3.462587102.051929,-0.903465,0.414273,-4.146396102.081897,0.199949,-1.251641,-4.800319102.111896,1.113893,-2.924304,-4.769402102.151874,0.892639,-4.203959,-7.446625102.181873,0.745078,-2.385444,-1.596962102.211841,1.892361,-4.593931,0.747091102.251819,2.299889,-4.981706,-0.305075102.281818,2.82442,-3.4246,-0.284434102.311778,2.786719,-2.90354,-0.028921102.351756,2.141155,-2.843127,-0.227397102.381725,0.486138,-3.021051,-0.376893102.411724,-1.703755,-1.99412,-0.258305102.451702,-2.229321,0.510834,2.770159102.4817,-3.61652,0.48154,1.824459102.511669,-4.489953,2.268281,3.034075102.551647,-3.345022,4.453638,5.95967102.581645,-4.060862,3.05865,4.163926102.611614,-3.01341,2.398999,2.940645102.651622,-3.32002,5.623599,0.924599102.68159,-2.873846,4.336741,-1.07253102.711589,-2.208949,0.699437,-2.132742102.751567,-0.679656,-0.489916,-3.928602102.781536,0.417551,-1.408999,-4.772614102.811534,1.243121,-2.903862,-4.132399102.851512,0.302592,-4.828726,-8.141619102.881511,-0.44668,-3.410445,-2.805097102.911479,0.753737,-4.149302,0.969811102.951457,1.936731,-3.42419,0.152488102.981456,2.494499,-2.94514,0.154345103.011455,2.369659,-3.22078,0.083499103.051433,1.329544,-1.807552,-0.20398103.081401,0.263533,-1.676577,-0.50092103.1114,-0.866649,-1.400136,0.220082103.151378,-1.609775,-0.164245,3.620851103.181346,-2.841102,0.601113,1.672065103.211345,-2.049796,2.90999,4.02589103.251323,-2.949897,2.550434,6.102922103.281322,-3.30318,2.406938,4.423805103.311266,-2.599061,2.838781,3.545197103.351244,-3.084184,4.272978,1.114733103.381243,-2.723837,1.955289,-2.344087103.411242,-1.990417,0.665203,-4.31505103.45122,-0.546145,-0.700363,-4.884576103.481188,0.353466,-1.746467,-5.504674103.511187,1.487662,-3.450555,-5.15154103.551165,-0.360538,-4.707085,-6.594306103.581164,-0.660178,-4.019175,-0.781208103.611132,1.586271,-3.450944,0.502367103.65111,1.795324,-3.539657,-0.077333103.681109,2.200553,-3.321904,0.408395103.711077,2.538743,-2.965323,0.677989103.751086,1.679794,-2.666624,-0.018158103.781054,0.31956,-2.194176,-1.15123103.811053,-1.74169,-1.905966,-0.112619103.851031,-2.317969,-0.692699,3.858066103.880999,-2.723795,1.121189,2.325662103.910998,-3.605767,2.91284,3.670757103.950976,-3.759675,1.836472,5.49728103.980974,-4.23199,2.909948,3.387314104.010943,-2.923666,4.572872,2.106808104.050921,-3.175195,5.674559,0.789014104.08092,-3.125884,2.71088,-0.733631104.110888,-2.544837,0.783554,-3.157652104.150896,-0.203465,0.836451,-4.575838104.180865,0.450444,-1.268029,-4.421848104.210863,1.012499,-3.591304,-4.219845104.250841,0.120504,-3.929626,-7.327063104.28081,-0.082559,-1.979422,-1.142075104.310772,0.449949,-5.304376,0.562104.35075,2.000296,-4.343907,-0.151386104.380749,3.315702,-3.374326,-0.01233104.410717,3.65919,-4.455298,0.085588104.450696,1.64886,-3.509126,-0.05755104.480694,0.243245,-1.85274,-0.144287104.510693,-1.192943,-0.78736,0.938379104.550671,-2.447215,0.799205,3.921219104.580639,-2.386461,1.953175,2.681304104.610638,-2.340853,3.665095,3.985587104.650616,-1.84481,2.411672,5.657298104.680584,-3.223335,1.2748,4.265433104.710583,-2.956201,1.837719,3.465066104.750561,-2.926143,4.856649,2.209233104.78056,-2.857439,2.878643,0.1095104.810528,-2.593221,-0.253402,-2.878689104.850506,-0.401691,-0.008955,-4.236678104.880505,0.241004,