time_tick,gyr_X_value,gyr_Y_value,gyr_Z_value-0.011692,0.113384,-0.27574,0.3651710.038265,0.235365,0.437327,0.1298240.068264,-0.191983,0.079088,-0.1189950.098232,-0.08833,-0.167174,-0.0739940.13821,0.13874,-0.037466,0.0880450.168209,-0.30689,-0.001024,0.1926440.198177,-0.466285,-0.106576,0.2540510.228176,-0.342879,-0.245853,0.1882750.268154,0.01716,0.038919,0.1436150.298122,0.104107,0.219722,0.1684470.3381,-0.236487,0.26876,0.0953010.368099,0.017785,0.114108,0.0491810.398067,0.202293,-0.264246,0.1640570.438045,-0.139854,-0.604889,0.3530380.468044,-0.281411,-0.857962,0.3109160.498012,-0.623139,-1.210265,0.2770450.53799,0.448976,-0.963311,0.0729870.567964,0.086266,-1.299215,-0.3576930.597932,-1.191329,-0.940341,-0.62210.63791,-0.683211,-1.110434,0.158230.667909,0.604336,-1.129899,-0.1143630.697877,0.638475,-0.545256,-0.8037330.737855,-1.047267,0.679883,-0.895290.767854,-0.610621,0.463386,-0.5515540.797822,1.441232,-1.003656,0.558460.8378,1.56148,-1.125674,0.7731080.867799,3.199484,-1.130474,1.00940.897768,4.433028,-0.262792,0.912870.937746,5.144263,-2.015499,3.3060630.967744,4.131548,-4.230158,4.8546610.997713,6.403265,-6.550443,4.4924941.037691,2.234216,0.492851,-1.0283471.067689,0.760391,2.782235,-0.1583671.097658,1.877537,9.24733,6.1167221.147645,-4.548473,1.154554,4.6960811.167634,-4.200561,-1.050164,3.3602371.197603,-4.402735,1.105623,1.3164091.237581,-2.860158,6.101499,0.3456691.26758,-2.177068,6.130343,-0.878611.297548,-2.592292,4.368333,-2.5356731.337526,-2.836756,-0.534686,-2.8955011.367525,-2.886655,-3.538136,-5.2973071.397493,-1.503819,-5.680602,-5.3241411.437471,7.615124,-1.698179,-3.1036641.46747,2.468861,-3.212992,-1.868061.497438,-0.058742,-7.113932,0.0780891.537416,2.230685,-4.514031,0.5974171.567388,3.91198,-2.110314,0.5007781.597356,4.774645,-1.484949,1.1121221.637334,5.104229,-2.111518,-0.2972951.667333,1.0505,-1.618979,-0.2166441.697301,-1.018794,-1.659047,1.4666071.737279,-2.212813,-0.156557,2.1670561.767278,-3.239808,2.569813,2.5832861.797246,-2.564675,3.487981,3.000411.837224,-2.6852,3.615615,4.0262661.867223,-4.716257,2.037895,4.1602631.897191,-6.080749,1.56707,4.0444151.937169,-4.127313,4.023968,2.068521.967168,-3.591353,3.997923,0.8155991.997136,-2.712998,3.193135,-0.629662.037114,-1.445875,0.502316,-4.4971182.067113,-1.200763,-1.57955,-5.8471782.097081,-0.736556,-4.887833,-5.4655272.137059,-1.620312,-7.157246,-3.4222962.167058,-1.42421,-8.013635,0.0358562.197026,-1.049888,-6.31572,2.0829612.237004,2.136353,-2.401504,0.6269332.267003,3.181958,0.424996,1.3381282.296971,3.592569,0.046756,1.6896192.33695,3.358045,-1.056243,0.8511642.366948,1.038353,-1.271606,1.6912412.396917,-3.406614,-1.659892,3.0467962.436895,-3.610232,3.73338,2.8251682.466893,-0.512429,6.712599,1.076892.496862,-1.008037,6.180892,1.7353552.53684,-3.03488,3.933885,4.6007612.566798,-4.504408,1.841396,4.0058912.596767,-3.826214,2.014407,2.6269592.636745,-3.819248,2.674215,0.4000972.666743,-2.343762,2.534285,-1.8395882.696712,-1.651257,1.326957,-3.9186782.73669,-0.803941,-0.187303,-4.4848492.766689,0.322345,-1.659982,-5.0155442.796657,0.838807,-3.592487,-3.7026022.836635,0.52773,-3.731074,-0.0219412.866634,0.043053,-4.494971,0.64462.896602,1.767653,-3.672156,0.9776872.93658,3.540137,-2.676733,0.6649452.966579,3.595119,-1.645652,-0.4353512.996547,2.662845,-0.898977,-1.0555093.036525,0.509863,-2.603879,0.7494643.066524,-2.278867,-1.311605,1.9872633.096492,-2.925011,2.740063,2.3722653.13647,1.216674,7.313873,2.117753.166469,-0.154112,5.494553,4.7885843.196437,-3.078563,-0.753848,6.1080923.236415,-5.543144,-2.56069,4.3944573.266414,-4.915043,-0.029498,1.5922783.296382,-3.318896,1.966527,-1.5941993.33636,-0.304591,3.838977,-3.4606673.366359,1.192309,2.622075,-4.3142673.396327,-0.575396,-2.577428,-4.7754353.436305,1.027638,-5.370347,-5.4727623.466274,2.289569,-4.165123,-2.5010153.496272,0.757911,-4.192075,1.4063783.53625,0.753182,-4.158113,1.6109523.56619,2.445063,-1.069605,1.7512663.596188,3.838942,1.04686,0.7484953.636166,4.041932,-0.361855,-0.8677043.666135,1.404237,-2.655811,-0.4753833.696133,-1.266353,-3.411084,0.7578823.736111,-0.958381,1.567594,1.1861273.76608,-0.734175,4.49492,0.344843.796079,-0.28255,6.99772,3.1055013.836057,-1.774356,1.599176,6.2240583.866025,-4.647145,-3.678589,6.0277373.896024,-6.242412,-3.69344,4.5486773.936002,-3.923377,1.60914,0.0619743.96597,-2.163144,4.586527,-1.6948773.995969,-0.375805,4.451266,-2.6115134.035947,-0.709614,-0.997507,-4.5657114.065915,-1.338324,-4.778547,-4.2373984.095914,0.947372,-4.334086,-4.613934.135892,2.155029,-3.627741,-1.5538814.16586,0.638619,-3.816126,1.056494.195859,1.190316,-3.22698,0.9050234.235837,3.693796,-0.700682,1.3639814.265805,4.261724,-0.483424,0.7160024.295804,4.134268,-1.091818,-0.3998164.335782,1.709216,-2.465676,-0.3024944.36575,-0.188241,-2.040604,0.536854.395749,-0.895286,0.778758,1.3260814.435727,-1.92947,4.564638,0.2762764.465695,-1.07124,5.733696,2.8803954.495694,-2.824932,1.660252,5.3227494.535672,-5.442931,-2.397284,4.3532124.565612,-4.883095,0.124325,2.6640264.595611,-3.143521,2.389202,-0.5220584.635589,-2.048349,2.865565,-2.7290454.665557,-0.180406,2.033957,-3.0563794.695556,0.368185,-1.304696,-4.5992534.735534,-0.140311,-4.991193,-4.4483164.765502,2.234857,-4.769724,-3.4167294.795501,0.633555,-4.873867,0.3134934.835479,-0.509669,-3.583844,1.6520554.865447,1.634382,-0.570609,1.5856254.895446,2.954372,0.814692,1.5711434.935424,3.772131,-0.077204,-0.1163324.965393,2.690383,-1.236052,-0.9091385.005371,0.128555,-2.965107,0.1185415.035369,-1.111921,-0.262344,1.0022685.065338,-1.548199,3.02412,1.2382315.095336,-1.966384,4.138164,0.3767395.135314,-1.710384,3.006681,3.5870155.165283,-3.891846,-0.480038,5.1324095.205261,-6.133479,-2.311818,3.5297265.235259,-5.048944,0.232545,1.4758595.265228,-3.410005,3.251615,-0.5974345.305206,-0.768957,5.604083,-1.7070185.335205,0.792062,2.164161,-3.734755.365173,-0.44326,-3.565752,-4.4071695.395172,0.524823,-4.868632,-4.2790515.43515,2.983768,-2.772246,-2.6038195.465118,0.626648,-3.482734,1.2876645.505096,0.467452,-3.269338,1.2240165.535095,3.761269,-0.779536,1.1828625.565008,4.167918,-0.873851,0.726915.604986,3.847857,-1.244759,-0.8088215.634985,2.357699,-1.245661,-1.4608275.664953,0.549427,-0.684587,-0.8448645.704931,-0.712808,2.169127,0.8965295.73493,-1.77034,3.229815,2.002735.764898,-2.045328,3.808658,0.2132415.804876,-0.303035,4.928614,2.9141615.834875,-3.105402,0.742873,4.5076945.864843,-4.304098,-1.559875,3.8328965.904821,-3.671946,0.086319,1.2826525.93482,-2.237593,1.672069,-1.1649195.964788,-0.955248,2.318181,-2.165676.004766,0.958189,-0.131768,-3.7440926.034765,-0.092835,-3.976433,-3.9847016.064733,0.871288,-5.199435,-4.5664996.104711,2.531234,-4.85247,-1.4198686.13471,-1.018587,-5.533155,2.0577326.164678,-0.288567,-2.894849,1.6030086.204656,2.098759,1.265488,2.2445186.234655,2.64274,1.35157,1.300056.264623,2.888968,0.225153,-0.4977026.304601,0.770105,-1.659313,-1.154536.3346,-0.426863,-1.800757,0.3603776.364569,-0.285963,1.156102,1.730556.404547,-2.045379,3.309598,1.7241896.434545,-1.252133,4.097027,2.0744376.464514,-1.431154,2.890266,3.3058036.504492,-4.647766,-2.211114,4.1084766.53449,-5.580299,-2.542258,3.2553156.564446,-4.382366,0.252416,0.6069416.604424,-1.940076,3.937353,-2.5509976.634422,-0.598034,3.513107,-3.0213996.664391,-0.159445,0.114069,-3.8901386.704369,-0.567038,-3.069365,-3.5653896.734368,2.347187,-2.849322,-2.8151826.764336,0.799793,-3.737805,0.3926056.804314,-0.736313,-3.758131,1.9948866.834313,2.054124,-0.805482,1.3834546.864281,3.695124,0.586476,0.7868716.904259,4.070622,-1.019835,-0.5568046.934258,2.964282,-2.655201,-0.9992396.964226,0.012847,-3.567341,-0.5664517.004204,-0.241942,1.179731,0.638927.034203,-0.419322,4.001423,1.026267.064171,-2.268635,3.6015,0.5914997.104149,-1.087783,3.592561,3.2506447.134148,-2.834346,1.25928,4.9652667.164116,-4.455959,-1.450702,4.5155947.204094,-3.920332,0.333354,2.2144557.234093,-2.407336,1.754,-0.8701887.264061,-2.245865,1.997403,-2.7107887.304039,0.467527,1.193788,-3.5923567.334038,1.122245,-1.844421,-4.3081917.364006,0.372997,-4.001713,-4.6633677.403984,2.532748,-3.390931,-2.7662917.433983,0.935106,-3.740526,0.8590797.463951,0.590643,-3.812371,1.6060667.503929,3.312529,-1.153901,1.3513527.533928,3.481794,-0.956391,1.1441347.563847,3.514131,-1.177364,-0.1141367.603825,1.928518,-1.646645,-1.5077157.633824,0.402,-2.229447,-0.6308867.663792,-0.475131,-0.091422,0.7702587.70377,-1.34829,2.995019,1.1136077.733769,-1.410682,3.230134,0.7623237.763737,-1.692483,1.199982,3.2857657.803715,-4.59108,-2.24642,4.5969647.833714,-4.971362,-1.344273,3.0755087.863683,-4.290561,1.604774,1.5776557.903661,-3.419614,3.595474,-2.757847.933659,-2.988879,4.231373,-3.7527277.963628,-0.323039,3.299145,-3.6805288.003606,-0.586667,-2.457651,-4.2066638.033604,0.108276,-4.253523,-4.5416148.063573,2.106669,-4.810749,-2.482378.103551,-0.823145,-5.745583,2.1339728.133549,0.008523,-3.578763,1.8475478.163518,2.867958,-0.390514,1.8206428.203496,3.783884,-0.101194,1.1829948.233495,3.547655,-0.986509,-0.2714858.263463,2.205895,-1.586866,-0.9827628.303441,0.094758,-2.175815,0.3421588.33344,-1.674357,-0.813448,1.5481818.363408,-2.577368,1.187522,1.1168778.403386,-2.176269,1.736551,2.3148238.433385,-4.826161,-0.749327,4.2958628.463353,-7.734837,-1.937848,4.1800778.503331,-6.403955,1.418518,1.9822338.53333,-2.498033,3.969449,-0.6878618.563263,-0.379954,4.248557,-2.9278438.603241,0.256525,3.549288,-3.6408128.63324,1.676882,0.800608,-4.6179938.663208,0.985196,-3.486856,-4.9351488.703186,2.17304,-4.842068,-4.3982548.733185,1.318353,-4.368946,-0.9090258.763153,0.038662,-3.623104,1.4914428.803131,1.772327,-1.966586,1.0758348.83313,2.808284,-1.170855,1.6049438.863098,3.012507,-1.540663,1.5084438.903076,4.102748,-2.647982,0.2488088.933075,2.066953,-3.198927,-0.3128578.963043,-0.655655,-1.754438,0.0263629.003021,-1.970099,3.101694,1.5109259.03302,-2.694681,4.637346,0.5647769.062988,-1.556017,4.221658,0.6181099.102966,-3.428299,1.525556,4.1772259.132965,-5.261757,-1.243408,4.1462399.162933,-3.871272,0.579824,2.8288789.202911,-1.309254,2.16567,0.0454539.23291,-1.614315,1.580265,-2.5106329.262878,-0.771444,1.6947,-3.7353719.302857,1.46643,0.266941,-5.0672379.332855,0.563314,-2.638127,-4.8847599.362824,1.643406,-4.121749,-5.7585869.402802,0.324126,-3.916297,0.2792439.4328,-0.829762,-4.432545,1.6196469.462769,0.829501,-2.594587,1.6894989.502747,2.834852,-0.262068,2.1665349.532745,3.233858,-0.700806,1.8476029.562714,3.102488,-1.361498,0.2329939.602662,0.005822,-1.681498,-1.1234619.63266,-0.637775,0.342665,0.2825749.662659,-0.377337,3.017022,1.7064659.702637,-1.585578,3.60657,0.9386119.732606,-0.399859,4.0435,3.7522619.762604,-2.72058,0.676608,4.816469.802582,-4.215731,-2.252255,3.8941219.832551,-3.998293,-0.776692,2.5538639.862549,-3.475546,1.301311,0.2388639.902527,-1.911771,2.881423,-3.0979249.932496,0.044143,2.612541,-3.7296939.962494,0.829675,-0.801176,-5.39918510.002473,0.93149,-4.618602,-4.89651510.032441,2.796512,-4.467996,-4.23277410.06244,1.127472,-5.645058,0.0487910.102418,0.536856,-4.96243,2.06937410.132386,1.628448,-2.434842,1.96334310.162385,2.795258,-0.69398,1.76891510.202363,3.385444,-0.779966,0.97161310.232331,3.172975,-1.679593,0.14218110.26233,1.621854,-2.288133,0.01559810.302308,0.183053,-0.963698,1.62114410.332276,-1.741607,0.786176,2.1733910.362275,-1.672958,3.123906,1.28404310.402253,-1.81543,2.715366,2.18923110.432221,-4.422491,-0.758481,3.82755610.46222,-5.792976,-2.053797,2.73336810.502198,-3.854967,1.960648,0.37043410.532166,-2.76393,3.522844,-1.48411910.562165,-2.081062,2.903246,-3.14088310.6021,-0.375272,2.064331,-3.82246710.632068,0.690117,-0.223629,-4.28912310.672046,1.896214,-3.398106,-4.71152610.702045,1.771671,-6.208801,-0.83377110.732013,-0.482743,-6.806928,2.0941610.771991,1.00651,-2.349301,1.92668310.80199,2.805541,0.544969,1.84385510.831958,3.813434,1.348821,1.31704910.871936,4.116829,-0.816327,-0.73031710.901935,2.709657,-2.30457,-0.95138410.931903,1.204074,-2.478472,0.39800810.961902,-0.442078,-0.172695,0.96375111.00188,-1.891434,2.678178,2.13766411.031848,-1.068581,3.034498,1.3912311.071826,-2.253258,0.643276,3.77197611.101825,-4.437647,-3.046728,4.16903111.131794,-5.155435,-3.13883,2.91502111.171772,-4.253641,1.312555,0.11295711.20177,-2.347269,4.023457,-2.73285211.231739,-0.718077,5.389891,-3.33237911.261737,-0.152364,3.895616,-3.74673711.301715,-0.985586,-2.720108,-4.68035911.331684,0.790213,-4.242749,-4.34707311.371662,3.128793,-2.235508,-3.65504811.40166,1.569672,-4.102787,-0.69694111.431629,0.744522,-5.517489,0.81476511.471607,1.303424,-3.614254,1.57076611.501606,2.035217,-1.627198,1.94757811.531574,2.72487,-0.350764,1.29206611.571531,2.54372,-0.550734,-0.23184711.60153,0.856793,-1.138758,-0.1882311.631498,-0.629572,0.262566,1.41807111.671476,-1.714034,2.404206,2.24753111.701475,-1.991232,2.569419,1.78169411.731443,-1.888389,1.54688,2.79891811.771421,-3.341609,-2.261377,3.63760811.80142,-4.287443,-2.894838,2.57131511.831388,-4.104784,-0.23352,1.27677711.871366,-2.504323,4.130625,-1.32157111.901365,-0.762001,5.493209,-2.430511.931333,0.264347,3.764186,-2.98112411.971311,-0.692319,-2.607714,-4.0460212.00131,0.753752,-4.311863,-4.35595412.031278,2.595858,-4.575994,-3.57378112.071256,0.216026,-5.826897,1.37681412.101255,0.232825,-4.463772,1.12651912.131223,2.519725,-0.982432,1.31499612.171201,3.257086,0.433606,1.42831512.2012,3.77511,-0.473309,0.61302212.231168,2.67784,-1.451832,-1.06212212.271146,-0.861023,-1.48378,-1.54787212.301145,-1.193699,1.4772,1.4665112.331113,-2.404072,3.651179,1.79295512.371091,-1.006008,5.76615,2.34645212.40109,-1.056022,3.008937,4.93271712.431058,-3.718287,-2.400208,5.08501412.471036,-3.653885,-1.281912,3.49654212.501035,-1.221628,1.787448,0.56940212.531003,-0.952574,3.015894,-2.13997212.570934,-1.04679,2.584122,-4.44023912.600932,0.023192,0.04403,-5.31037212.630901,-0.118338,-2.309733,-5.91384712.670879,2.315102,-1.32661,-4.56081412.700877,1.851881,-2.737013,-1.99620312.730846,0.749742,-3.964209,0.91618112.770824,0.456794,-4.210717,1.24178512.800822,1.78356,-2.848584,1.2914412.830791,3.076254,-1.972687,0.71238212.870769,3.363691,-1.576448,-0.42178612.900767,0.821159,-2.058251,-0.53528912.930736,-1.471166,-2.12212,0.62243912.970714,-2.600609,1.801589,1.69801613.000713,-2.040315,4.195791,1.97993213.030681,-0.378777,4.072543,1.01163613.070659,-2.556415,0.109082,5.00219813.100658,-5.220387,-3.019958,4.40997213.130626,-4.459908,-0.353138,2.75378713.170604,-1.598117,3.942961,-0.75665113.200603,-0.460488,3.815675,-2.40148613.230571,-0.418355,1.846113,-3.36619113.270549,0.313273,-1.461748,-4.75884113.300548,1.292401,-3.073268,-4.57087613.330547,2.315655,-5.049867,-5.70203513.370525,-0.303519,-5.930786,0.76286613.400493,-0.087851,-3.582625,0.90410213.430492,2.194526,-0.618398,0.0223313.47047,3.933327,-0.455634,-0.27546213.500438,4.189637,-3.064312,-0.58803313.530437,2.522698,-4.887944,-1.26488713.570368,-1.313594,-1.863363,-0.18251113.600336,-1.530908,3.892294,1.2892413.630335,-1.75364,5.276458,1.69825513.670313,-0.783317,3.816571,2.20087113.700281,-2.708797,0.183268,4.77848513.73028,-4.319605,-2.454388,4.31754613.770258,-3.3743,0.265305,2.0444713.800226,-1.98072,2.819646,0.36641813.830225,-0.456959,3.240912,-2.08253613.870203,-1.045096,1.462196,-4.53318813.900171,0.520809,0.03434,-4.16211413.93017,1.180563,-1.268302,-4.03442313.970148,1.052544,-5.139885,-2.53486514.000116,-1.155244,-5.825426,1.12520214.030115,-0.245507,-2.526773,1.78348314.070093,2.681148,0.423452,0.76384414.100061,3.091523,0.184688,0.16388414.13006,3.510206,-1.327664,-0.85219714.170038,1.68343,-2.591579,-0.84754714.200006,0.282569,-1.701336,0.6351714.230005,-0.301998,1.773383,1.85188814.269983,-0.72524,4.830451,3.65644214.299951,-0.80717,4.716797,2.70627214.32995,-0.9343,3.606602,3.43742314.369928,-2.517567,-3.424908,4.76922414.399897,-5.239533,-5.068735,3.53473314.429895,-4.002806,-0.875492,1.42821714.469873,-1.733023,4.745766,-1.4072514.499842,-1.231829,5.435076,-3.24240214.52984,-0.098066,3.346183,-3.90186214.569807,-0.587171,-2.79653,-3.54385214.599776,-0.192695,-6.04711,-4.12652214.629774,1.387675,-6.754635,-1.30969614.669752,0.409106,-4.516718,1.12380514.699721,1.311111,-1.581076,0.63603514.72972,2.454011,0.210808,0.63229314.769698,2.727497,-0.230849,0.02180914.799666,1.791417,-1.393717,-1.05231114.829665,0.315184,-1.650321,-1.71101414.869643,-0.136084,0.416411,2.22059214.899611,-0.993368,1.787,2.8017614.92961,-1.014214,3.01122,2.41724514.969588,-1.071633,2.101759,3.56037914.999556,-2.913368,-1.13252,3.78145615.029555,-3.647498,-2.639548,2.8634615.069533,-3.588399,-0.486536,0.21553215.099501,-2.435419,2.998743,-2.37482615.1295,-0.561231,5.096663,-3.26065415.169478,0.909082,2.739304,-3.85703615.199446,-0.32874,-2.670489,-4.16276715.229445,0.048099,-5.709637,-3.93411315.269423,2.226459,-6.313395,-2.80992715.299391,-0.305111,-5.617117,1.82293715.32939,-0.4548,-3.274842,1.73370715.369368,2.403829,0.655594,1.67245215.399336,3.307284,0.348067,0.93053915.429335,3.217864,-1.176954,-0.06556415.469313,0.808238,-3.334472,-0.37633315.499281,-0.938565,-3.039046,0.19754315.52928,-0.568367,0.865479,1.49642115.56921,-1.505253,3.919282,1.86383415.599209,-1.33986,4.37383,2.43872215.629177,-2.279694,2.271053,5.00795415.669155,-6.655237,-3.087789,4.78856915.699154,-6.585725,-2.054041,2.64389615.729122,-4.310359,2.201263,-0.07471315.7691,-1.55701,4.501957,-2.63521215.799099,-0.045044,4.13239,-2.16082315.829067,0.205947,1.909072,-3.22612115.869045,-0.091205,-2.980687,-3.52922315.899044,1.161435,-4.840845,-3.89771815.939022,3.076775,-4.188135,-1.37954615.96899,0.0925,-4.134974,1.39897315.998989,0.499442,-3.475171,1.19231216.028957,1.793496,-1.503766,1.69625916.068935,2.8494,-0.390974,0.76047216.098934,3.844341,-1.423905,-0.6250616.128902,2.606123,-3.100187,-1.05365816.16888,0.322961,-1.637549,0.17686416.198879,-0.887591,1.972779,0.64936416.228848,-1.794912,3.158198,1.45193116.268826,-1.406468,4.809228,2.56596716.298824,-1.922425,4.8391,3.50621216.328793,-3.234854,0.78438,4.380116.368771,-4.049218,-1.0119,3.24924516.398769,-3.646375,0.56152,1.34828816.428738,-2.534252,2.65532,-0.92529616.468716,-0.030896,3.490596,-2.52303616.498714,1.455795,0.494661,-4.18034116.528683,0.481471,-3.940958,-5.25749416.568661,2.028408,-5.680045,-5.42692516.598619,4.002837,-3.189741,-5.17916716.638597,-0.255603,-4.183941,1.07913216.668565,-0.52347,-4.702686,1.04929816.698564,1.82478,-1.999958,1.28166116.738542,3.384027,-0.262387,0.96241516.76851,4.175193,-1.883011,-0.09545416.798509,2.128487,-3.689,-0.52393316.838487,-0.256672,-1.496391,0.93742816.868455,-0.699335,2.036459,1.48198516.898454,-2.116778,3.114029,1.51057916.938432,-1.757262,4.917514,4.51378516.9684,-3.429936,2.329155,5.70936816.998399,-4.233109,-0.714715,5.67366217.038377,-4.203827,-0.115363,3.75859817.068376,-3.078701,1.595271,0.84673617.098344,-2.24957,3.015454,-2.9797217.138322,-0.565882,2.673918,-4.15237417.168321,0.265339,-0.643274,-5.16043717.198289,-0.828491,-4.538543,-6.26763817.238267,2.30621,-3.555487,-5.6854317.268266,1.152883,-5.092466,-2.78857817.298234,-0.208081,-5.978943,1.03683317.338212,0.966202,-3.225258,1.07585317.368211,1.909834,-0.939437,1.77245917.398179,2.302558,-0.605019,1.66751217.438157,3.183608,-1.146972,0.17333717.468156,2.246025,-1.698766,-0.25467417.498124,0.766314,-2.444153,0.27644317.538102,-0.914641,-0.150565,1.88141317.568101,-2.258846,2.02957,1.7957517.598052,-0.935514,4.257077,1.25867717.63803,-2.857653,1.638438,5.64949717.668029,-5.686477,-1.882297,5.6627217.697997,-5.986673,-0.908456,3.58454617.737975,-3.559415,3.434526,0.37803417.767974,-2.46,3.884716,-1.95998217.797942,-2.393805,2.514213,-3.26210617.83792,-0.732592,0.392931,-5.17225917.867919,0.216644,-2.013704,-4.9067117.897887,0.92174,-3.677261,-4.94190517.937865,1.213759,-5.80115,-0.70786117.967864,-0.997241,-6.253946,2.83848117.997832,0.026977,-3.731006,2.1131218.037811,3.148011,0.74552,1.76472218.067809,4.448663,1.086683,0.94001918.097808,4.843429,-0.469903,-0.6942718.137786,2.141099,-3.023235,-1.42925918.167754,-0.110386,-4.660564,-0.31758518.197753,-0.930176,-1.126333,1.12079318.237731,0.011985,4.819,0.87481718.267699,-0.712216,4.558569,-0.16136318.297698,-0.987046,2.584921,4.26350118.337676,-3.428136,-1.048108,6.41943518.367645,-5.408158,-2.412252,5.31420718.397643,-5.494767,0.06022,3.92977418.437621,-1.515486,4.271666,-1.2374418.46759,-1.523472,3.543705,-3.95090618.497588,-0.45899,0.989709,-4.83903818.537566,0.578712,-2.129485,-5.91159318.567535,1.415687,-2.402198,-6.31846318.597501,1.923171,-3.502317,-3.47355218.637479,-0.447168,-6.988761,1.25051618.667448,0.272216,-5.13132,1.45129918.697446,1.905809,-1.832891,1.09009418.737425,3.077029,0.359302,0.84426418.767393,3.547509,0.452826,-0.40705518.797392,2.530936,-0.463795,-1.27243618.83737,0.054286,-3.614689,0.30621518.867368,-1.812741,-3.578714,2.27257918.897337,-2.125165,-1.146123,1.27796718.937315,0.392183,3.919279,0.10823518.967313,-2.677207,5.382714,5.25034418.997282,-4.360358,1.369528,6.71798219.03726,-6.570098,-0.774269,3.27210619.067259,-5.204563,2.084738,1.11085919.097227,-3.414821,3.157082,-2.19244819.137205,-1.601352,2.763584,-3.89983719.167204,0.642923,1.360081,-4.1023119.197172,0.503683,-1.998791,-5.34361719.23715,1.421206,-4.258496,-4.4123219.267149,2.485991,-3.686881,-4.89823619.297117,0.718487,-5.310922,-0.6330519.337095,0.18612,-4.861398,2.17936319.367094,1.421016,-2.603011,2.02868519.44705,3.52222,-0.233029,0.51875819.487028,1.951939,-1.465811,-0.5939919.497007,1.312207,-2.014073,-0.43380719.536985,-0.373631,-2.566745,1.30342119.566984,-1.485289,-0.060216,1.30789519.596935,-2.370065,1.645969,1.18056519.636913,-2.239953,0.806993,3.48267519.666881,-4.200426,-0.010655,4.30606719.69688,-5.491319,-0.237854,3.96398619.736858,-5.272327,0.801601,2.04351119.766826,-3.322033,2.350055,-0.6317119.796825,-1.809031,2.762763,-3.80481219.836803,-0.607711,3.274557,-4.20250419.866771,1.130688,2.546462,-4.84136419.89677,0.683885,-0.878,-5.09593319.936748,1.295615,-4.531621,-4.86931719.966716,1.956294,-5.086514,-2.84000919.996715,-0.438016,-5.40549,1.86369120.036693,-0.02224,-2.933471,2.26102620.066661,2.191976,0.137273,2.02417420.09666,4.121726,0.539577,1.41312920.136638,4.649553,-1.894053,-0.20893520.166606,1.665844,-3.7643,-0.6509420.196605,0.072769,-3.06443,0.24119520.236583,-0.169796,2.677876,1.32811620.266582,-1.996033,3.090948,2.17142220.29655,-1.232106,4.669936,3.48551820.336528,-2.45865,3.254063,5.77493120.366527,-3.196429,0.009579,5.48009420.396495,-4.700062,-2.453323,4.19697920.436473,-4.374291,-1.545253,0.40914520.466472,-2.695183,0.619174,-3.84892820.49644,-2.009556,2.603981,-4.95345620.536418,1.173876,3.541248,-4.08850720.566417,-0.521093,-0.253549,-5.44379620.596336,-0.72464,-4.373572,-5.25397220.636314,1.548875,-7.018554,-3.22969820.666313,-0.165663,-7.1461,1.57760220.696281,1.160684,-4.219589,1.82248920.73629,2.64757,-1.071443,1.53468920.766258,3.532473,-0.81483,1.17159420.796257,4.321436,-1.881768,0.55119920.836235,1.967743,-3.771339,-0.51175920.866203,-0.74664,-1.723604,-0.07043220.896202,-1.079878,3.312809,1.45427720.93618,-1.558481,5.580807,2.05969920.966148,-0.61116,5.54555,1.5096420.996147,-0.349845,4.793205,3.54370621.036125,-2.798918,-1.49388,5.46780721.066093,-5.552793,-4.761081,4.15070621.096092,-5.607065,-2.994398,2.16550421.13607,-2.746795,2.856051,-1.71922721.166038,-1.96927,5.295414,-2.55139621.196037,0.478358,5.513883,-2.35006321.236015,-0.320256,0.141575,-4.08145421.266014,-1.895839,-4.761532,-3.58802921.295982,0.703185,-5.245979,-4.41801821.33596,1.531023,-5.466222,-1.94733621.365959,0.09383,-5.27348,1.40748421.395927,0.455131,-4.050373,1.36966321.435905,3.163611,-1.217723,1.22998721.465904,4.348932,-1.702366,0.44623621.495872,4.293917,-2.488239,-0.28145221.53585,1.405524,-2.799154,-0.3772521.565849,-0.209197,-0.354767,0.48701821.595801,-0.423011,4.049183,1.22112521.635779,-1.231552,5.050292,2.80959621.665777,-1.200824,3.809191,2.53284321.695776,-0.172697,3.528985,3.23751421.735754,-3.214327,-2.709273,4.80613121.765722,-5.274792,-4.279035,3.84688921.795721,-4.757026,-0.847471,1.50152221.835699,-2.555897,4.941577,-2.91776721.865667,-0.809565,5.404482,-3.48878221.895666,-0.13182,2.520897,-4.61123921.935644,-1.460508,-3.543298,-5.8097121.965613,0.435005,-5.324041,-3.5615421.995611,2.223644,-4.551637,-7.01193122.035589,-0.771818,-5.2111,0.49660722.065558,-1.651004,-6.016078,1.60084722.095556,1.105223,-3.142241,1.42859822.135534,2.155971,-1.7043,1.49734922.165533,2.378748,-1.896861,0.81168222.195501,2.578709,-1.747189,0.18224822.235479,1.397067,-2.348011,0.69463122.265478,-0.089681,-1.673449,1.74210122.295447,-1.414332,0.875014,2.10584422.335425,-1.841269,2.937199,2.46718422.365423,-1.258997,3.132244,3.74890822.395392,-2.671038,1.2526,5.05401122.43537,-4.960898,-1.701063,3.79172622.465368,-4.296788,0.980211,2.17970122.495367,-3.053161,3.537262,-0.21647922.535345,-1.993255,4.621762,-3.16382822.565313,0.119829,3.834961,-3.71579222.595278,0.520644,0.586012,-4.87344722.635256,-0.704816,-4.619579,-4.76050422.675234,1.946855,-4.485984,-4.53086622.705203,-0.016776,-5.80132,-1.19064322.735201,-1.553221,-5.427518,1.60123422.76517,0.100761,-2.541436,0.75019822.805148,2.502601,0.647008,0.80902822.835146,3.786979,0.315735,0.11851522.865145,3.894542,-0.594159,-0.56221322.905123,2.043783,-1.564764,0.21904822.935091,-0.460613,-3.43688,1.45974922.96509,-2.028095,-1.360749,3.12971823.005068,-1.243003,2.31111,4.00349923.035037,-0.612109,2.796308,4.25557423.065035,-1.892626,1.312132,5.75752423.105013,-3.84497,-2.175505,5.66750723.134982,-5.848859,-2.740442,3.69135723.16498,-5.442863,0.430273,1.02535923.204958,-3.433405,3.787466,-3.41413923.234957,-1.491737,4.886827,-3.90033223.264925,0.451415,2.983867,-4.60833623.304903,-1.069375,-3.388996,-5.47276423.334902,1.46726,-3.434872,-5.4704823.364871,2.360096,-2.500152,-5.66375923.394869,0.665719,-4.438998,-0.99555123.434847,0.022465,-5.361292,0.2938623.464816,2.266498,-2.202857,0.16392123.504794,3.467355,-0.902328,-0.10206823.534792,3.781222,-1.726143,-1.10245323.564791,2.737743,-1.65762,-1.05771523.604744,1.475935,-1.991164,-0.1607523.634712,-0.261975,-0.887201,0.22249223.664711,-0.595012,1.376566,2.38235323.704689,-1.534359,1.890971,2.20664223.734658,-1.198703,1.592972,5.8625123.764656,-3.000537,-0.094573,6.41846323.804634,-4.182264,-2.177871,5.06458923.834633,-4.823184,-0.659799,3.37143423.864601,-3.789681,2.36384,0.09398623.904579,-2.358426,4.517569,-3.46502723.934578,-0.884385,1.96816,-3.89785923.964546,-0.257899,-1.636761,-5.13410324.004524,1.142811,-3.458914,-5.90903924.034523,2.54864,-2.846328,-5.02434124.064492,1.898587,-4.876641,-2.41032324.10447,0.982959,-5.135089,0.81271524.134468,1.992788,-2.867693,0.5597524.164467,2.630047,-1.026844,1.01818124.204445,3.49862,-0.539972,0.9211924.234413,3.417289,-1.796599,0.1683724.264412,0.974739,-2.987264,-0.45558824.30439,-1.58987,-0.983992,1.12658524.334358,-1.450291,3.066718,1.79950824.364357,-2.780423,3.567958,1.4084624.404335,-1.999024,1.448916,3.40613624.434304,-6.108027,-2.645426,4.67555924.464302,-7.64325,-3.658183,3.02763124.50428,-3.982569,2.358846,-0.24837724.534279,-2.157951,4.318171,-2.15263524.564247,-1.634124,3.087137,-3.74420824.604188,-0.388968,0.311528,-3.54047324.634187,0.648209,-1.941388,-4.52670724.664155,1.591124,-2.835627,-4.26177324.704133,3.675348,-2.461594,-3.67985324.734132,0.570578,-5.523789,-0.97517324.764131,-0.588601,-4.98248,1.99896124.804109,1.130151,-1.510055,1.56878224.834077,2.036615,-0.036667,1.80446824.864076,3.102726,-0.129346,1.38538224.904054,3.540312,-0.84653,0.52858224.934022,1.529465,-1.387273,0.59710824.964021,-0.009772,-0.838996,1.22554325.003999,-0.683763,3.551068,1.99110425.033998,-1.810339,3.924234,2.43722725.063966,-1.68345,3.068374,2.18265825.103944,-3.395233,1.012635,5.71582725.133943,-6.020134,-1.780677,5.21260525.163911,-6.639815,-0.688679,3.29211925.203889,-4.343998,2.88032,-0.20440925.233888,-2.99613,3.553723,-2.40893825.263856,-1.249514,3.43841,-3.66256825.303865,0.201702,-0.182934,-4.9320625.333833,-0.014132,-3.144187,-4.51936925.363832,2.235519,-3.117447,-6.39018925.40381,1.060651,-3.820163,-1.79384425.433778,-0.133823,-3.837203,1.56013425.463777,1.606303,-1.426103,0.79644125.503755,2.787347,-0.377971,0.98685425.533723,3.129546,-1.842533,0.81031425.563722,3.158138,-3.196728,0.01708125.603659,0.33671,-3.909485,-1.02755625.633658,-1.101544,-3.290641,-0.00873925.663626,-1.41609,0.338725,1.27252625.703604,-1.663514,4.398683,0.80298225.733603,-1.366582,5.081307,4.35892725.763571,-2.63571,2.33157,6.27988625.803549,-4.537665,-1.2364,5.43071825.833548,-4.649548,0.155474,3.8817125.863547,-3.190294,1.658471,0.82234825.903525,-3.404679,1.487693,-4.16616425.933493,-1.997086,2.294935,-4.27600725.963492,0.724681,2.555276,-4.68557826.00347,-0.111815,-0.65854,-5.82703826.033438,0.698515,-2.140998,-4.81349526.063437,1.371817,-3.653154,-2.48909226.103415,0.03591,-5.611079,1.35806426.133414,0.458835,-5.316072,1.04524326.163382,1.631838,-3.204001,1.21813926.20336,2.708539,-0.884235,1.06787926.233359,3.333349,-0.650755,0.05679426.263327,1.806803,-1.31397,-0.59645526.303305,-0.64684,-2.144963,0.11136926.333304,-0.795206,0.867692,1.3024626.363303,0.233027,4.393963,1.0634426.403281,-0.211132,5.18036,2.14589526.433249,-1.777721,1.989094,5.30381726.463248,-2.35034,-1.987046,5.40607726.503226,-4.393706,-3.665253,3.79901226.533194,-3.396413,-0.478849,1.85815926.563193,-2.070644,2.186843,-0.69502526.60314,-0.670743,4.029866,-3.74913526.633139,0.631959,2.497081,-4.68782926.663107,0.060612,-1.715736,-4.87180826.703085,2.334904,-2.636327,-6.1244726.733084,2.247338,-3.878486,-3.451226.763052,-0.684391,-6.382905,1.22916426.80303,1.122187,-3.034804,0.94449626.833029,2.407737,-0.587245,1.22199326.863028,3.203894,-0.120752,1.26102326.903006,3.335343,-0.836628,-0.29916326.932974,1.409814,-1.877736,-0.81083826.962973,-0.19205,-2.641224,0.31309727.002951,-0.490055,1.395246,1.19548727.032919,-1.264043,2.586962,2.33753727.062918,-2.094905,2.252676,3.70892327.102896,-3.206722,1.214182,5.94794227.132894,-3.45225,0.508922,5.43937527.162863,-4.539954,-0.73427,3.88989327.202841,-5.162535,-0.259153,1.44816727.23284,-3.50094,0.893519,-2.11103327.262808,-3.062643,1.523256,-4.2248627.302786,0.470094,2.287625,-4.05389227.332785,1.209077,0.133021,-5.01147527.362783,1.225968,-2.371035,-5.25843427.402761,2.43447,-3.566224,-4.87858727.43273,-0.502292,-7.519882,-0.60868827.462728,0.079841,-5.0801,1.29304727.502706,1.714457,0.445477,1.43144327.532675,2.474861,1.867385,1.92219427.562674,4.23257,0.598764,0.71019927.602594,1.23341,-2.804729,-0.3581227.632592,-0.366059,-3.321108,-0.16938927.662561,-0.011404,-0.313291,0.18800927.702539,0.738325,4.191311,0.0594827.732537,-0.35771,4.263212,1.0367627.762506,-1.488008,2.366681,3.34523627.802514,-2.398307,-0.872478,5.71267227.832482,-4.417572,-3.313222,4.1367827.862481,-5.308447,-2.608455,2.53216427.902459,-4.124048,2.219337,0.09265427.932428,-2.403721,5.456482,-2.43285927.962426,-0.775802,5.339378,-2.78127628.002404,-0.220174,-0.597405,-4.42208228.032403,-0.619704,-4.274507,-4.91715828.062371,2.439243,-2.541404,-4.58547928.102349,0.931151,-4.472865,-1.17063728.132348,0.37676,-4.912201,1.25174528.162316,0.584896,-2.677158,0.86586428.202294,2.711052,0.225535,1.30276428.232293,3.279504,-0.005599,0.6538728.262292,3.618703,-0.988206,-0.58013628.30227,2.259663,-2.386342,-0.37867328.332238,1.40649,-2.738616,0.29216528.362237,-0.332352,-1.308302,0.53750328.402215,-2.306382,0.71851,2.46076328.432183,-2.211542,2.897741,1.16818728.462182,-2.038136,3.14521,3.76699728.50216,-4.706596,-0.018556,4.44013328.532159,-5.743348,-1.295378,3.03782128.562127,-5.42176,0.267706,1.36566128.602081,-3.126808,4.409879,-2.09248428.63208,-1.620158,5.09116,-3.11394228.672058,-0.466589,1.803991,-3.54054428.702057,-0.283897,-3.805839,-4.59292428.732025,0.720445,-4.524706,-4.58564528.772003,2.38514,-3.149597,-2.99981428.802002,0.707489,-4.233187,0.51202428.83197,0.242966,-4.000081,1.69366528.871948,1.412279,-1.357559,1.40500928.901947,1.872678,-0.546025,1.59265328.931946,2.909809,-0.713585,0.60361628.971924,2.899763,-1.879538,-1.32240129.001892,0.76797,-2.879582,-0.85951829.031891,0.273339,-1.265361,0.47302429.071869,-1.870348,2.589923,0.30672429.101837,-1.974535,3.783475,1.30424729.131836,-2.909433,2.128512,3.751729.171814,-4.558617,-0.234978,5.70707629.201813,-5.498033,-1.10099,4.32995129.231781,-5.232879,0.670162,2.68961529.271759,-2.609656,3.722083,-0.85285929.301758,-1.857439,3.508907,-3.95092829.331757,-1.103708,2.368476,-4.84044829.371735,1.282599,-0.64177,-5.75915829.401703,0.863781,-3.245889,-5.93148729.431702,2.280436,-3.810818,-5.88284529.47168,1.508242,-6.174024,-2.80912229.501648,-1.362858,-6.794185,1.26266929.531647,0.02738,-3.038288,1.2684629.571625,0.58321,-0.062199,2.09858529.601599,1.304751,0.932907,2.1447429.631567,3.468578,0.814614,1.09362229.671545,2.403336,-1.632922,-0.14937129.701544,-0.092716,-4.173694,-0.0343929.731512,-0.931056,-2.80795,1.37658329.77152,-2.504049,1.8068,1.52784129.801489,-2.920131,3.450521,0.98024329.831487,-3.126586,3.299371,3.15960429.871465,-5.338023,0.988511,4.68676629.901434,-6.563706,-0.557905,3.31311929.931432,-5.617807,1.050719,1.93262729.971411,-2.347974,3.434931,-1.69376930.001409,-2.232951,2.864631,-3.81389130.031378,-0.901411,2.536824,-3.45934930.071356,1.350621,0.388434,-4.68776830.101354,0.313305,-2.842057,-4.52451130.131323,1.065726,-4.172992,-2.79604130.171331,1.852445,-4.851173,-1.76811830.201299,1.266895,-3.385019,0.4151130.231298,1.231333,-2.501137,0.35749330.271276,1.664019,-0.966606,1.18735330.301245,1.782437,-0.518996,1.59721830.331243,3.057528,-1.01501,0.73838730.371221,2.062425,-1.912689,-0.39285730.40122,0.265429,-2.44468,-0.30851530.431188,-0.390895,0.298205,1.04421130.471166,-2.067038,3.482704,2.30008530.501165,-1.631273,4.324188,2.02257130.531133,-1.530576,3.2383,2.9250830.571142,-3.352136,-1.475222,4.13098930.601068,-4.21191,-2.243633,2.97882730.631067,-3.51895,0.148733,1.09680230.671045,-2.56158,2.397994,-1.32962330.701013,-2.321494,2.937958,-3.46194630.731012,-0.384238,3.930569,-3.06517430.77099,0.051089,0.401819,-4.59319830.800989,-0.539148,-3.691692,-3.37848630.830957,1.63844,-4.592002,-2.35874330.870935,0.758527,-5.08682,0.20772630.900934,0.706065,-3.411417,1.35282430.930933,0.820549,-1.526744,1.12155230.970911,2.023207,0.298187,1.415931.000879,3.032894,-0.372243,0.83504931.030878,3.684007,-1.091298,-0.47092531.070856,2.861923,-0.28452,-0.88627631.100855,1.562448,-0.525054,0.75900831.130823,-0.234075,0.37826,2.64169131.170801,-1.431296,2.316314,4.27117331.2008,-1.023725,4.494141,4.13741831.230768,-1.912375,3.587415,4.16619531.270746,-3.10037,-0.883392,3.82116231.300745,-3.954084,-2.927137,2.80651131.330744,-3.224541,-2.306333,0.40313431.370722,-1.836439,1.498113,-3.45599531.40069,-0.561202,2.633795,-3.36489331.430689,0.586082,1.423789,-4.19847331.470667,-0.575513,-1.942586,-4.52418231.500665,1.015109,-1.97496,-4.07088531.530634,1.654692,-3.029604,-2.35025731.570612,0.820596,-3.344505,0.7127531.600561,1.072538,-2.878618,0.3441331.63053,2.287716,-1.839066,0.55361831.670538,2.465808,-2.34984,0.58418731.700507,2.622941,-2.745587,-0.11026331.730505,1.977582,-1.818679,-0.4090931.770483,0.97605,-1.791886,0.57333631.800452,-1.685363,-1.370737,1.47881131.83045,-3.11687,0.660512,2.30142131.870428,-3.367492,3.098904,2.17576431.900427,-2.998307,3.575345,2.83682631.930395,-3.414128,1.873627,3.20493331.970373,-4.335599,-0.583072,2.42521632.000372,-3.852366,0.15124,0.86822932.030371,-2.68242,1.584848,-1.32073532.070349,-1.618249,3.412056,-2.77071932.100317,0.663073,3.319347,-2.76560332.130316,0.470198,-0.135876,-4.1669632.170294,0.094989,-4.289032,-3.45753232.200293,2.121449,-3.857356,-2.66558732.230261,1.746023,-4.614408,-1.32556332.270239,0.552859,-4.762911,0.98618232.300238,0.952924,-2.050498,1.30073932.330206,2.62209,0.425078,1.53856632.370215,3.788522,-0.320798,0.20113632.400183,3.179787,-1.090614,-0.79133832.430182,2.006198,-1.347211,-0.93011532.47016,0.473481,-1.002262,0.66728132.500128,-1.808628,-0.304845,1.54938632.530127,-2.727808,1.150268,2.62840332.570105,-2.944747,2.13317,2.86545332.600096,-3.523512,1.545771,3.37759432.630064,-4.027876,1.28834,3.4452532.670042,-3.582923,1.315654,2.36630332.700041,-2.919478,1.117882,0.47075532.73004,-2.905222,0.824049,-1.60714432.770018,-1.565662,2.215017,-2.70445332.799986,1.613626,2.245341,-3.38470832.829985,0.212058,-1.344323,-4.55862432.869963,0.489912,-3.979863,-3.25616632.899961,1.69964,-3.551234,-2.48953832.92993,1.48894,-3.461757,-0.56582232.969908,1.383818,-2.79419,0.6991132.999906,1.877945,-1.490055,1.03968333.029905,2.741299,-0.86833,1.31824833.069883,3.322559,-1.336087,-0.06495333.099852,2.415324,-0.868274,-1.32743633.12985,1.72547,-0.914571,-1.14193133.169828,-0.515636,-0.699236,0.33449333.199827,-2.507192,0.69176,1.06899733.229795,-2.483288,2.191152,1.98885433.269773,-1.979778,3.972339,2.78874233.299772,-2.736055,3.632521,4.18428933.32974,-2.87019,2.060295,4.48266633.369749,-3.693707,-0.846502,3.65137333.399717,-3.920307,-0.942856,0.97599333.429716,-2.924809,0.410644,-1.89727833.469694,-0.752665,1.264009,-2.86717833.499662,0.303795,-0.257497,-3.89739233.529661,-0.072135,-2.297675,-4.14777833.569639,1.163056,-2.415223,-2.84386733.599604,1.109422,-3.377677,-1.16915333.629572,1.032312,-3.775733,0.93667133.669581,1.001303,-3.675167,1.00755833.699549,2.679804,-0.654352,1.2391233.729548,3.636268,0.027903,0.85964433.769526,3.116585,-1.942547,-0.59154533.799494,1.016668,-2.230276,-1.18042533.829493,0.245077,-1.12748,-0.38652633.869471,-0.762917,2.383092,1.0605433.89947,-1.824069,3.18783,2.08867633.929438,-1.348492,3.964429,3.04343833.969416,-2.735071,1.883561,4.1525733.999415,-3.066996,0.065985,3.70933934.029414,-3.203071,-0.616613,2.89812734.069392,-3.591853,-0.326824,0.67302734.09936,-2.632308,0.857547,-1.9513134.129359,-1.221406,1.912868,-3.01663634.169337,0.61729,1.189878,-3.61022434.199335,0.574644,-1.609595,-4.00077734.229304,1.411529,-3.449736,-4.10044834.269282,2.626738,-4.65217,-2.96217734.29928,1.581103,-4.853256,1.04729334.329279,0.823401,-4.047853,1.56493834.369257,3.066103,-0.393685,1.30542934.399226,3.925547,-0.017258,1.03544634.429224,4.001961,-0.985688,-0.37107734.469202,2.05002,-1.739463,-2.134934.499201,0.891788,-2.209628,-0.97081834.529169,0.532254,-0.734514,0.57961834.569147,-1.383145,1.206036,1.85359234.599101,-1.176622,3.424368,0.83317334.6291,-0.727636,3.83852,3.80787934.669078,-3.58653,-1.250437,5.80742134.699046,-5.417078,-3.675914,4.72210634.729045,-5.392378,-0.289515,2.29020934.769023,-3.457208,3.898931,-2.81110234.799022,-2.549386,3.856281,-4.09049334.82899,-0.641716,2.88831,-3.44741934.868968,0.059496,-0.951837,-4.8156534.898967,0.028871,-2.779951,-3.7756634.928966,1.678878,-4.132642,-3.42588134.968944,1.089801,-5.220936,-0.64111434.998912,0.799515,-5.55722,0.7944935.028911,1.126486,-4.895514,0.69812635.068889,2.562107,-2.485911,0.73080635.098888,3.267684,-2.3565,0.3333935.128856,2.863656,-2.804374,-0.16662435.168834,0.598536,-2.144263,0.01912735.198833,-0.374072,0.37009,1.41158435.228831,-1.097042,2.455363,2.12639435.268809,-1.441578,4.277981,2.81547335.298778,-2.141009,2.923952,5.61350635.338786,-4.397936,-1.029257,5.67692935.368754,-4.998825,-1.596121,3.64608335.398753,-4.636285,1.18166,1.8963435.438731,-2.856323,3.88953,-1.50235135.4687,-1.829616,4.010101,-4.023135.498698,-0.387797,2.924917,-4.76964535.538676,0.223285,-1.715803,-5.44018135.568675,0.333376,-3.857006,-5.90797435.598608,1.972821,-3.101663,-4.56056735.638617,0.849182,-4.65429,-0.38695235.668585,0.587711,-5.045695,0.66276935.698584,1.227936,-3.930884,0.72554635.738562,2.424573,-2.640501,1.03779435.768561,3.133863,-2.352439,0.63490435.798529,3.268937,-1.505119,-0.04632435.838507,2.697163,-0.890394,0.40238335.868506,0.717873,-1.51667,1.60418435.898474,-1.837163,-0.303955,2.42527935.938483,-1.92861,2.973852,3.42420235.968451,-1.516001,3.631519,3.69219735.99845,-2.58648,1.94422,4.51609636.038428,-4.895646,-2.362556,4.30191836.068427,-5.194035,-1.189934,3.08198736.098395,-4.524819,1.253529,0.70157436.138373,-3.034541,2.090778,-2.58444736.168372,-1.857271,2.722787,-3.26984136.19837,0.80348,2.440461,-4.32995336.238348,0.062308,-2.181715,-4.99206636.268317,1.366084,-3.078301,-5.3787236.298315,2.14426,-4.272502,-2.83007536.338293,0.543388,-4.905445,0.782536.368292,1.604826,-2.682554,0.62771636.398261,2.865109,-0.829463,1.07940236.438239,3.824154,-1.63377,0.75690136.468237,3.934977,-2.166998,-0.23599936.498236,2.688836,-2.299742,-0.60996836.538214,1.198087,-2.863572,0.4915936.568182,-0.872105,-1.171236,1.37254336.598147,-1.883963,1.644716,2.06428836.638125,-1.859332,3.845697,1.0407436.668124,-2.595431,2.609476,3.71329436.698092,-3.776629,-0.539803,5.21328536.738101,-5.937932,-3.020293,3.42940936.768069,-5.307756,0.229754,1.55838136.798068,-3.508019,3.032091,-1.65765836.838046,-2.093837,3.424241,-3.81778336.868014,-0.467033,2.217781,-3.65457236.898013,-0.331453,-0.554011,-4.82179436.937991,0.665136,-2.3462,-4.06083436.96799,2.313291,-2.193133,-2.11483136.997958,1.382634,-4.285804,-0.59853437.037966,1.572803,-4.193321,1.18746937.067935,1.610458,-3.341298,0.9835537.097934,2.546657,-1.970304,0.97876937.137912,3.006983,-1.093391,-0.15462137.16791,3.036647,-0.557972,-1.134837.197879,2.168677,-0.841273,-0.76946637.237857,0.622115,-1.118835,1.40546937.267855,-0.965567,0.243801,2.13474737.297854,-1.511741,2.460271,2.11692337.337832,0.081595,5.380885,3.66171837.3678,-0.717393,2.110216,5.28956737.397799,-3.674193,-3.757038,5.37119237.437777,-5.255819,-2.78391,3.11345737.467776,-4.803398,1.035518,-0.19339237.497744,-2.653652,3.12913,-3.18526637.537722,-0.858433,2.307778,-3.43227337.567721,-0.076115,0.109486,-4.11883437.597669,0.578114,-2.2076,-4.81659637.637647,2.462538,-2.48333,-4.91031237.667615,2.631476,-4.408992,-4.29310137.697614,-0.311858,-7.536308,0.41118937.737592,0.983422,-4.050153,0.50059237.767591,1.879452,-0.604069,1.2463837.797559,1.922182,0.117932,1.49887737.837568,2.851544,-1.345777,0.64813637.867536,2.463108,-0.926274,0.25674737.897535,1.442501,-0.776947,0.76262537.937513,-0.810749,0.248832,1.50877937.967511,-1.422383,2.111981,2.4315737.99748,-2.31777,2.53888,3.20027938.037458,-1.589313,3.887714,1.8698738.067457,-0.34354,4.375666,3.30572638.097455,-3.238767,-1.111633,3.62096938.137433,-5.403419,-3.855326,2.5100238.167402,-5.130665,-0.759689,0.54506138.1974,-2.76201,3.815415,-1.08204938.237378,0.510105,4.125892,-2.13611838.267377,0.140964,-0.496449,-3.66323338.297345,-0.138028,-4.274339,-3.4883538.337354,2.481808,-2.561952,-4.14395738.367322,2.505551,-2.244002,-2.1144538.397321,0.777288,-3.212813,0.11893238.437299,0.477313,-2.155651,0.44868838.467298,2.733839,-0.667027,1.07784738.497266,2.405569,-1.932097,1.28753538.537244,3.081548,-1.818003,0.06692338.567243,2.709479,-0.979811,-0.75222738.597234,1.267775,-1.000496,-0.3174138.637212,-0.54473,-0.178547,1.45716838.66718,-1.762844,0.782872,1.89406438.697179,-1.088972,3.37008,0.92162838.737157,-2.125399,1.959687,3.89368638.767156,-4.706824,-2.267321,4.3417638.797124,-4.760155,-1.814709,3.10772438.837102,-3.951799,0.886731,-0.267438.867101,-2.949264,2.137289,-3.28820738.897099,-1.669022,2.952007,-3.51260238.937077,0.580899,1.782906,-3.92486238.967076,0.408878,-1.531504,-5.02125238.997044,1.396871,-3.165161,-4.77450239.037022,2.202653,-4.717477,-3.19827339.067021,0.821722,-6.512658,-0.61609639.09702,1.315359,-4.131129,0.56869239.136998,2.349748,-0.476179,1.23428339.166966,2.932572,-0.40156,1.79369939.196965,3.943171,-1.327791,1.17208939.236943,2.922704,-3.085465,0.61275939.266942,1.162172,-3.715415,0.50136339.29691,-0.415519,-1.915374,0.22570339.336888,-1.139429,1.387949,1.7996839.366887,-2.031344,2.824826,1.69893839.396886,-1.562429,3.828491,2.22323439.436864,-3.414519,1.183089,5.47252239.466832,-6.212279,-1.923406,4.32406439.496831,-5.598565,-0.376587,2.62587339.536809,-3.990329,2.698573,-0.02580839.566808,-2.853514,3.173162,-2.35034739.596712,-1.863912,2.946503,-2.55787239.63672,0.362186,0.579018,-4.44904639.666689,-0.143642,-3.187537,-5.04099939.696687,1.308596,-3.886001,-4.57768439.736666,1.603725,-4.778654,-1.50914739.766664,0.609435,-5.416635,0.61635739.796633,0.81264,-3.907403,1.05407539.836611,2.374961,-0.517694,1.49792339.866609,3.359077,0.061583,1.45293339.896608,4.262934,-0.648092,0.10282139.936586,1.831018,-2.473094,-1.3569939.966554,0.670636,-2.278817,-0.22773539.996553,-0.061875,0.307963,1.39005140.036531,-1.044518,2.472626,2.45984440.06653,-1.567738,2.78192,3.00656840.096529,-1.800483,1.628429,5.13277440.136507,-3.162087,-0.533467,5.07009740.166475,-4.796226,-2.53526,3.88772340.196474,-5.781366,-1.255962,2.76893440.236452,-3.207714,3.816297,-1.53932240.266451,-1.835845,5.263261,-3.17696840.296419,-0.587239,3.719978,-2.95580640.336397,-0.310209,-2.25181,-5.29667940.366396,0.798433,-4.30761,-5.49224440.396395,3.158952,-2.805952,-5.1805640.436373,1.165365,-5.745594,-0.95014440.466371,0.25731,-6.338812,1.02734640.49634,1.316972,-3.26804,0.65822640.536318,2.573588,0.698879,1.74692140.566316,3.822868,0.930812,1.21345740.596287,4.122754,-1.350553,-0.39461740.636265,0.399703,-3.774224,-1.90999240.666233,-0.242738,-1.293022,-0.70898640.696232,-0.708699,2.150956,0.88597540.73621,-3.171226,3.297197,2.16679340.766209,-1.771975,5.350644,4.1884940.796177,-3.017771,3.121923,5.00034540.836186,-4.04417,-1.05986,4.65865540.866154,-5.161574,-2.207855,3.64196240.896153,-4.750359,-0.893667,1.41969740.936131,-2.990061,1.06722,-3.25864140.96613,-2.602882,2.024944,-3.54848940.996098,0.284738,2.641273,-3.27470441.036076,-0.076969,-1.545127,-4.01471541.066075,1.224664,-3.023861,-3.13085741.096074,1.971021,-4.297635,-1.95638641.136052,1.95266,-4.575882,0.55568741.16602,1.855619,-4.46554,0.606641.196019,2.883763,-2.466089,0.94007641.235997,4.11609,-0.800139,0.72771241.265995,4.461119,-0.889519,-0.57807741.295964,2.758857,-1.506047,-1.43443641.335972,0.643423,-1.466667,0.5812841.36594,-0.955431,-0.595504,1.89883541.395939,-1.432666,0.946806,2.89048241.435917,-1.337445,2.647428,3.15669941.465916,-1.835461,1.698737,3.69136341.495884,-3.622142,-0.801104,4.10077441.535862,-4.948125,-1.561711,2.58953541.565861,-5.201983,-0.010391,0.6038541.595834,-4.073882,2.10736,-2.24600741.635812,-2.027561,4.190872,-3.56575141.665811,-0.026356,4.387277,-3.48017941.695779,0.355436,0.711224,-5.13053741.735757,-1.175807,-6.005133,-4.24298841.765756,1.913068,-7.118602,-3.81550741.795755,1.113655,-6.291599,-0.21189841.835733,1.150833,-2.567323,1.4251141.865701,1.695945,-1.063854,1.37990541.8957,2.220199,-0.676174,1.63543441.935678,3.594833,-0.871444,0.72260141.965676,3.110125,-1.655179,-0.17018941.995645,0.326319,-3.22038,-0.32758242.035653,-1.141226,-0.826289,0.6215842.065622,-1.038557,3.178838,1.07211442.09562,-2.200053,4.188846,1.23739642.135598,-1.860418,3.949957,4.54399742.165597,-2.846528,1.411877,5.25432742.195565,-3.350186,-0.906736,4.54806142.235543,-3.611178,-0.108276,2.81978542.265542,-2.873252,0.807224,0.1176242.295541,-1.961357,1.7196,-3.34709242.335519,-0.372264,2.815803,-3.9198442.365487,0.587778,0.744172,-4.92833742.395486,-0.208097,-2.935148,-5.10759742.435464,2.402938,-2.574513,-4.87516642.465463,1.037407,-4.940769,-1.38319442.495462,-0.033068,-5.77608,1.31168142.53544,0.487335,-3.076612,1.23206442.565408,1.979442,-0.138551,0.88927342.595376,3.431544,0.017339,0.21658542.635354,2.988468,-2.987665,-0.30781242.665352,0.184761,-3.736599,-0.38693542.695321,0.45115,-1.556931,0.93075742.735329,0.234052,1.322731,1.38188442.765298,-2.272704,2.132052,1.59985942.805276,-1.533386,5.868351,5.13796942.835274,-1.879767,3.894251,5.39572942.865273,-3.534577,-0.430093,4.9711242.905251,-4.676942,-1.441637,3.25273942.935219,-3.950954,0.707877,0.92647842.965218,-2.173239,2.35715,-2.69574943.005196,-0.363078,1.29722,-4.8130743.035195,0.22305,-1.338663,-5.65100443.065194,0.559053,-3.595907,-5.42584143.105172,3.119257,-2.271676,-6.47821643.13514,0.539379,-4.493444,-2.0835243.165139,-1.394102,-6.942842,2.27409743.205117,0.544622,-3.928621,1.76292643.235116,3.023838,0.298312,1.43808743.265084,4.444392,0.58655,1.03338643.305092,3.849958,-3.264449,0.29108943.335061,0.882347,-4.50379,0.42241243.36506,-0.645081,-2.31054,0.70993743.405038,0.061911,3.65289,0.71259743.435036,-1.629483,3.865285,2.05372943.465005,-1.731928,3.915066,3.54407143.504983,-2.378554,2.65578,4.96935643.534981,-3.579271,-0.466284,4.6985743.56498,-4.509449,-1.610336,3.55174343.604906,-3.960681,0.63128,0.23056543.634874,-2.473224,2.736859,-3.32519943.664873,-0.932664,3.423886,-4.22208743.704851,0.706726,0.078279,-5.34001743.73485,-0.485857,-4.54916,-5.93985543.764849,1.477119,-4.824655,-5.9081443.804827,0.86302,-6.105919,-1.5431143.834795,-1.078724,-6.127568,1.97611243.864794,0.350988,-2.834501,1.65127843.904772,2.301874,0.838046,1.88498743.934771,3.829287,1.291728,1.18938743.964739,4.711211,-0.278255,-0.12536644.004748,0.701773,-3.732645,-0.20636244.034716,-1.575022,-4.008544,0.71179744.064715,-0.241262,2.144508,0.83969944.104693,-1.538148,5.508113,2.25426544.134691,-1.141275,5.549399,3.98190544.16466,-1.703008,3.166096,5.63593344.204638,-3.963226,-2.423639,5.3265544.234636,-4.785347,-2.821261,3.77246844.264635,-4.581081,-0.797111,1.26230144.304613,-2.193627,3.076834,-2.77888844.334612,-0.712202,4.333994,-3.89304944.36458,0.410495,2.782865,-4.58207244.404558,-1.010311,-3.385083,-5.96485844.434557,1.186276,-4.241366,-5.55355644.464556,2.196125,-3.736832,-3.96931444.504534,-0.572842,-5.643722,1.57715144.534502,-0.545573,-5.104799,1.83963744.564501,1.255918,-2.024997,1.57087144.604444,3.816881,0.074886,0.81989144.634443,4.529537,-1.392268,-0.28882544.664411,2.929877,-2.889515,-0.7967644.70442,-0.008071,-4.295233,0.25298644.734388,-0.749786,-0.276655,1.23823744.764387,-1.026295,4.28697,1.18962244.804365,-1.546221,5.36281,2.38126544.834363,-1.601047,4.18034,5.56591244.864332,-2.173808,0.685149,6.27364544.90434,-4.617264,-3.736084,4.64772244.934308,-4.626091,-1.037074,2.32462244.964307,-2.643437,2.475507,-1.22308145.004285,-1.48803,3.677235,-4.53557445.034284,-0.500191,2.42289,-4.49006345.064252,-0.352984,-0.974538,-5.510845.10423,0.524047,-3.645042,-5.96075145.134229,2.046722,-2.655733,-5.26938745.164228,0.901057,-4.670434,-2.25806845.204206,0.033432,-5.539458,0.70793645.234205,0.600019,-4.040624,0.83544945.264173,1.523222,-1.904705,1.57275645.304151,2.875868,-1.353373,1.34566545.33415,3.42059,-1.388001,0.55783145.364149,2.536655,-0.810631,0.22667445.404127,-0.048342,-1.728789,0.61374245.434095,-1.736232,-0.486205,1.07993845.464094,-0.682174,1.591775,0.43347545.504072,-0.277752,4.441598,2.40352745.53407,-2.737093,2.653365,6.21830645.564039,-4.093816,-0.871941,5.89273545.604032,-4.842487,-0.705492,4.0822945.634,-4.023877,1.237507,1.15972145.663999,-2.726434,3.188905,-2.28290245.703977,-1.112088,3.988926,-4.03011945.733976,0.304887,1.351535,-4.65931145.763944,-1.20286,-3.30206,-5.45027445.803953,1.449915,-3.418392,-4.66943445.833921,0.855205,-4.413133,-2.39840745.86392,-1.381609,-6.456755,1.43838345.903898,-0.164886,-3.519223,1.66246145.933897,1.914609,-0.378004,1.57516345.963865,3.623269,0.269503,1.28137846.003843,4.453249,-1.878532,-0.02236146.033842,2.798962,-2.345533,-0.50570246.063841,1.599451,-3.066025,0.37567946.103819,-0.62474,-1.324894,1.5397946.133787,-1.405695,2.020293,1.7206946.163786,-2.419342,3.246146,3.35661846.203764,-2.575797,3.924225,6.42550546.233762,-3.32022,1.87566,6.0950946.263761,-5.789709,-1.452567,5.44460946.303739,-7.073794,-0.880632,2.36155346.333708,-5.83849,1.91057,-0.54833946.363706,-3.354161,4.53845,-2.84205946.403684,0.745471,3.841136,-2.94276646.433683,-0.277544,-0.912356,-4.40874146.463651,-1.056186,-5.30112,-4.36305346.50366,2.026537,-4.560749,-4.50301446.533628,2.370025,-3.854703,-2.5528546.563627,1.16286,-6.27015,0.10233846.603548,0.42283,-5.237363,2.16486446.633547,3.137949,-1.327563,2.11629246.663515,4.882152,0.021072,1.69226346.703524,6.299065,-0.252553,0.21444446.733492,4.855577,-2.259593,-0.0665446.763491,1.789341,-3.766601,0.36813546.803469,0.572474,0.240004,1.08730746.833467,-0.801197,2.055722,1.64240746.863436,-3.402628,2.000769,2.83378246.903414,-3.386819,1.596595,4.1455346.933412,-4.22768,0.393743,3.73892146.963411,-5.535691,-1.32198,3.23740447.003389,-5.540172,-0.790147,0.96249647.033358,-4.851563,2.202638,-1.218447.063356,-2.778605,4.934133,-3.12341247.103334,-0.457537,4.603889,-2.381847.133333,-0.746227,-1.199534,-3.82052247.163332,-0.581895,-5.300489,-3.78008147.20331,1.618537,-4.144339,-3.24305747.233278,2.666918,-3.745891,-2.00063947.263277,1.603759,-4.203609,0.35536747.303255,1.893081,-3.011666,0.65951447.333254,4.220765,-0.774982,1.20694847.363222,4.573538,-1.522458,1.10818447.403231,5.277579,-2.100506,0.41526847.433199,4.3816,-2.568632,0.39280347.463198,1.968852,-2.45599,0.43306847.503176,-0.622266,0.439291,1.17350647.533174,-2.058907,2.113163,2.33268847.563143,-3.937335,3.008424,1.65372847.603132,-3.127655,3.691158,4.53695847.633101,-3.692153,1.208596,4.73039747.663099,-5.792117,-2.558268,4.22621847.703077,-4.868069,-0.082075,1.7854847.733076,-2.513534,3.396068,-1.49309247.763044,-1.675805,3.974389,-3.7687547.803022,0.147024,0.806277,-4.3258247.833021,0.226216,-3.322469,-5.56364347.86302,0.479455,-4.723321,-5.86603547.902998,1.513594,-3.762374,-2.95626447.932966,1.406339,-5.406752,-1.1609547.962965,0.494728,-4.547557,1.21422948.002943,1.991668,-2.264272,0.69177648.032942,3.03184,-1.650956,1.16035848.062941,3.357279,-1.828267,1.11614848.102919,4.215951,-1.537546,0.49907448.132887,2.998034,-3.117118,0.74911348.162886,0.664507,-5.108773,1.1524248.202864,-2.94561,1.783155,1.06752848.232862,-2.783045,5.499816,1.84522448.262831,-3.282724,4.077992,0.67568848.302839,-3.400482,1.160374,4.2320748.332808,-5.947776,-1.481668,5.22063448.362806,-6.13653,-1.210257,3.59296848.402784,-4.579229,2.947711,0.58146448.432783,-3.772109,4.518075,-1.85184848.462751,-2.350524,4.99991,-2.77960848.50276,0.367538,2.147898,-4.19521348.532728,-0.203932,-3.524211,-5.12347948.562727,0.472479,-5.968541,-4.49986748.60266,2.096908,-5.028738,-3.8268348.632659,-0.293171,-5.448262,1.49093848.662627,0.584716,-2.615404,1.09687248.702605,4.486932,1.081846,1.08384548.732604,4.349335,-0.991312,1.29958848.762603,4.994803,-2.882348,0.36508548.802581,3.785919,-3.247126,-0.17695748.832549,0.867664,-1.587144,0.057248.862548,-0.109758,1.439117,0.41971148.902526,-2.241568,2.478564,1.47549248.932525,-3.004096,3.843098,2.21938248.962523,-2.86005,3.742378,5.75003549.002501,-4.771575,-0.197519,5.07757149.03247,-5.821535,-1.465413,3.75313349.062468,-5.510539,-0.20218,1.94460749.102446,-3.517763,2.845179,-2.01887549.132445,-1.818529,3.788632,-3.99910449.162413,0.743956,2.669215,-4.43693549.202422,-0.316736,-3.622881,-6.0863949.23239,0.206668,-5.338717,-5.37031349.272368,1.574965,-3.672476,-3.03834549.302367,-0.509428,-4.703477,0.65242349.332366,-0.923765,-3.657218,1.76050149.362334,0.948699,-0.637388,1.48539149.402312,3.069954,0.099201,1.7283949.432311,3.537873,-1.486047,1.36005549.46231,3.608752,-2.512371,0.80520349.502288,1.600817,-3.662279,0.41533349.532286,-0.863373,-1.554246,-1.11746249.562255,-2.537556,1.80209,-0.25008849.602211,-4.787203,4.705186,0.65373449.63221,-2.738088,9.707622,3.72390749.672188,-4.341366,3.1546,6.27571649.702186,-6.213961,-1.604255,5.65396349.732155,-5.645332,-0.227127,3.83675849.762153,-3.188106,1.00636,0.28747749.802131,-1.982573,1.178528,-4.07893249.83213,0.603891,1.774907,-4.25879949.862129,1.375689,-1.733062,-5.58724149.902107,0.535487,-6.399946,-5.39512949.932075,2.76878,-4.752776,-4.82036149.962074,2.416139,-4.699379,-3.23585850.002052,0.97813,-5.000026,0.52906250.032051,0.898794,-3.692624,1.52559550.062019,2.28682,-2.100154,1.69585450.102028,3.663684,-1.30441,1.60546750.131996,4.462341,-1.914326,0.78426350.171974,2.849783,-3.179477,0.71626750.201973,0.861342,-3.127,1.5087750.231972,-1.430518,0.540368,1.80656950.27195,-2.519027,3.817202,2.83449350.301918,-3.418448,4.039091,2.3076850.331917,-2.410145,4.71254,4.03146750.371895,-5.541275,-0.455874,5.63417650.401893,-7.338982,-2.547012,4.0896450.431892,-6.218886,0.136488,1.74866550.47187,-3.088506,4.651599,-2.77291150.501838,-1.049554,4.756524,-3.56793850.531837,0.240109,1.948287,-4.64848450.561836,0.22379,-3.90723,-7.45900550.601765,1.441606,-7.441724,-5.28888950.631733,2.988236,-4.624028,-5.81881650.671742,1.171998,-3.177346,-0.1469950.70171,-0.06645,-3.644692,1.09431650.731709,1.272915,-2.334143,1.28935450.771687,1.819292,-1.638455,2.08219450.801686,2.211648,-2.050538,1.99883550.831654,2.97519,-2.331288,1.15936350.871632,1.958334,-1.734239,0.81599550.901631,0.205313,-2.047231,1.55872750.93163,-2.192355,-0.178608,1.78523850.971608,-2.668991,4.074746,1.7091251.001606,-2.012578,5.025326,1.73996951.031575,-2.60505,3.504577,4.27625551.071553,-6.467806,-1.627716,4.70407151.101551,-6.52163,-1.00558,3.038951.13155,-5.558446,1.613798,0.50300651.171528,-2.345119,4.063403,-3.31770251.201496,-0.579402,3.236802,-3.81090851.231495,-0.061202,-0.142038,-4.84877551.271473,0.039325,-4.570284,-4.93886551.301472,2.360327,-3.716209,-4.20078151.331471,1.557548,-5.075866,-0.86026151.371449,-0.521732,-5.770139,1.9319551.401417,0.407434,-3.213246,1.55993251.431416,1.394981,-0.472355,1.65661751.471394,3.047412,0.345504,1.29786851.501393,3.923809,-0.883634,0.21953151.531361,2.69477,-2.602058,-0.09893551.57137,0.255513,-3.485069,0.42466451.601338,0.015136,-0.26197,0.72721651.631301,-0.562686,3.044336,0.50834451.671279,-2.200906,3.6419,2.52150551.701277,-3.232229,2.067447,4.54755351.731246,-4.080778,0.695722,4.4729251.771224,-5.154754,-0.369881,3.11083451.801222,-4.830364,0.618003,1.66056551.831221,-3.326326,1.718967,-0.76349851.871199,-1.784446,3.780269,-2.99122151.901198,1.143213,3.934083,-3.68380651.931166,2.387072,0.85135,-5.21431451.971144,0.439617,-4.291086,-5.00077452.001143,1.891129,-3.613638,-3.15573852.031142,1.013457,-4.952895,-1.02563452.07112,-0.218758,-4.847703,1.06149452.101088,0.230133,-3.340764,0.51652652.131087,1.956513,-1.011567,0.93966652.171065,3.116964,0.075514,0.77469852.201064,3.906859,0.437708,-0.11666552.231032,2.794886,-0.784808,0.05544852.271041,-1.095003,-3.342821,1.17562652.301009,-1.775951,-1.682516,1.45604652.331008,-1.713808,0.865837,1.44516752.370986,-2.276378,2.334215,4.14132252.400984,-3.470011,2.438296,4.13649352.430953,-4.543074,1.004287,4.20970552.470961,-6.186646,-0.319786,2.15403752.500929,-5.654138,-0.207222,-0.4801852.530928,-4.57255,-0.103093,-3.75845152.570906,-1.6016,2.506247,-3.81044352.600905,2.209207,4.921765,-3.77923952.630846,2.241799,1.873756,-4.65368852.670824,0.554203,-4.185414,-4.37179452.700823,1.845274,-5.120967,-3.02580552.730822,0.314458,-5.824616,1.03171552.7708,0.056156,-3.836279,1.94201152.800799,1.60566,-0.551146,1.85870752.830767,3.282059,1.914907,1.64642852.870745,5.336362,0.89177,-0.11411952.900744,3.256846,-1.827348,-0.65718552.930743,-0.253399,-4.017097,-0.41227552.970721,-0.494843,-0.410514,0.84528953.000689,-0.861249,3.176236,0.89834953.030688,-2.904483,3.696857,1.53405153.070666,-3.115569,3.623969,4.76352953.100664,-3.258463,1.541058,4.70203953.130633,-4.627799,-1.473783,3.72631253.170641,-5.453227,-2.255143,1.62791553.20061,-3.772635,0.145291,-1.5481953.230608,-2.429152,3.37949,-4.13559253.270586,0.978801,5.653319,-3.31282253.300585,0.908842,0.259246,-4.70035353.330553,-0.695491,-5.24551,-4.210853.370562,2.796408,-4.142655,-4.82827953.40053,2.013441,-3.775818,-1.22345253.430529,0.555862,-4.501796,1.26368153.470507,1.164055,-2.713339,1.41439653.500506,2.683011,-0.571658,1.62888753.530474,3.449522,-0.522852,1.59867353.570452,4.378925,-1.228367,0.25052253.600451,3.162428,-1.76731,-0.65817853.630418,1.505999,-1.922232,0.27270453.670396,-1.066583,-0.939077,2.12709153.700364,-3.323744,0.541787,2.70239353.730363,-2.698058,4.193061,2.17346753.770341,-3.280745,3.982761,3.40388153.800339,-5.150899,0.228244,4.19541353.830338,-6.624368,-2.079162,3.17550353.870316,-5.186543,-0.877381,-0.33162353.900285,-3.128046,0.540567,-3.97287553.930283,-1.071629,2.337235,-3.94758353.970261,0.483097,3.181524,-3.73531654.00026,0.391949,-0.748945,-4.38700854.030228,0.238053,-4.161967,-3.72274454.070237,1.979389,-4.993442,-1.78589154.100205,0.902663,-5.895381,1.24231954.130204,0.745525,-3.931596,2.47010754.170182,2.543562,-0.481678,1.84765554.200181,3.570072,0.426154,1.4863754.230149,4.356353,-0.365433,0.51832654.270158,3.266608,-2.424766,-0.63143554.300126,1.059236,-2.674444,-0.67919954.330125,0.920137,-0.051623,0.51475754.370103,-1.230301,2.019089,1.14798954.400101,-3.002601,2.416239,1.81831354.43007,-1.813925,3.615785,1.81981654.470048,-3.28345,2.009915,3.55412654.500046,-5.827885,-1.022839,3.40425354.530045,-6.010242,-1.478794,2.26733254.570023,-4.47285,0.351742,-0.59331254.599992,-3.046615,2.060621,-2.90522454.62995,-1.374112,3.699213,-3.10275754.669928,0.744774,2.116428,-4.20666854.699927,0.057347,-2.868221,-4.19116154.729926,1.245091,-4.731073,-3.56833354.769904,2.138026,-3.778378,-1.90786354.799872,-0.279025,-4.525403,2.09089354.829871,-0.212926,-3.910433,2.24912654.869849,2.041319,-0.748908,1.63483754.899848,3.170604,-0.641564,1.46457354.929816,3.824572,-1.635447,0.38677554.969825,2.355643,-1.622469,-1.41426354.999793,1.051991,-1.540082,-0.19697655.029792,-0.226783,0.181678,0.86603955.06977,-1.147336,3.987438,0.78506455.099768,-0.817094,4.933824,1.70202755.129737,-1.549774,3.359126,4.42402955.169745,-3.069938,-1.236132,5.21564555.199714,-5.738211,-3.723275,4.31143755.229712,-6.233953,-2.359588,2.05862855.26969,-3.362735,1.907223,-2.73698955.299689,-1.753272,4.850075,-4.73488155.329657,1.118098,5.524322,-4.38677255.369635,-0.17546,-1.92052,-4.92230155.399634,-0.833247,-5.992835,-3.79377455.429633,1.974215,-4.813553,-2.99041955.469611,-0.282311,-5.250695,1.85420255.49961,-0.234345,-3.817532,2.75308855.529578,0.884819,-1.309257,1.93557655.569556,2.713099,1.142022,1.42496355.599555,4.126882,1.040416,0.3000155.629512,4.468392,-0.490474,-0.64830355.66949,1.409958,-3.537682,-0.00161155.699458,-0.662,-3.562147,0.89113155.729457,-0.447431,1.120266,0.48583555.769435,-1.146947,4.446783,0.61842455.799433,-0.936463,4.247807,1.56275455.829432,-1.82848,2.818158,3.23921155.86941,-5.232631,-1.454989,4.01859355.899379,-5.404585,-1.021793,2.85469455.929377,-4.100401,1.474619,0.76583455.969355,-2.680365,3.95285,-2.17260655.999354,-0.61093,5.02415,-2.62089656.029322,1.524569,2.658838,-4.11691556.069331,-0.317259,-4.505485,-5.30964356.099299,1.650463,-6.110437,-4.86373756.129298,2.241734,-5.400954,-3.33417656.169276,-1.511568,-4.664914,2.11690256.199275,0.167719,-1.693625,1.05495256.229243,2.429475,0.732059,0.94213156.269252,2.423465,-1.177499,1.18898856.29922,2.819027,-2.426224,0.51026656.329219,2.817027,-2.411506,-0.47544156.369197,1.291176,-1.954527,-0.00426656.399195,-0.157437,-0.455263,1.6277656.429164,-2.467183,0.842535,2.65166156.469142,-3.171723,2.670909,1.68721156.499141,-1.973904,3.69144,2.85481256.529139,-3.410122,2.041599,3.37645656.569117,-6.462282,-1.212764,2.9697256.599116,-6.269358,0.221839,1.49870356.629064,-5.921837,1.48025,-0.39958956.669042,-3.041414,1.359726,-3.15601156.699041,-1.233474,2.338218,-3.41122256.72904,0.823566,1.183037,-4.45825756.769018,1.366644,-3.465183,-3.55501256.808996,2.478572,-5.556629,-3.15192356.828985,1.689767,-6.477753,0.14257156.868963,-0.964944,-6.156486,2.98797456.898962,1.571533,-1.563654,2.61101256.928961,3.716647,1.961826,2.30074156.968939,5.156399,0.537222,1.15460956.998907,4.817756,-2.392844,0.34213757.028906,2.321622,-4.207158,0.24261357.068884,0.108708,-1.197612,0.46276357.098882,0.046479,2.674218,0.25173557.128881,-1.427026,3.272252,0.40476257.168859,-1.521818,4.147695,1.95715157.198828,-3.767731,2.161095,4.26501857.228826,-6.683352,-1.412378,4.78152257.268804,-7.353246,-1.257495,2.13658657.298803,-5.071665,2.142358,-0.62365757.328771,-2.193511,4.410471,-2.97126957.36878,-0.644523,4.071628,-3.67492657.398748,0.397522,0.548398,-4.82768357.428747,0.260607,-3.829971,-5.41496957.468725,2.025006,-5.257577,-4.80286157.498724,2.46032,-4.367382,-2.31911357.538702,0.268362,-5.884585,1.15188757.568701,0.408247,-3.291379,2.41705357.598669,1.713506,-0.384246,2.12566357.62862,2.81001,0.761043,2.05448257.668598,3.912225,-0.804208,1.04994257.698596,3.035284,-2.541878,0.33819857.738574,0.998304,-3.041856,0.44709857.768573,0.326097,-1.509198,0.53535657.798542,-1.379781,1.210751,0.31005857.83852,-2.425675,3.805142,0.96311557.868518,-1.976686,3.77373,2.44354257.898517,-3.446201,2.507282,3.16410357.938495,-5.388704,-0.575938,3.48700957.968494,-5.772029,-0.746659,2.35333557.998462,-4.529381,0.90453,-0.16939758.03844,-2.448237,2.807417,-3.71413658.068439,0.352083,4.103369,-3.49508658.098438,1.858541,1.229972,-4.41527758.138416,0.179562,-5.047255,-4.29926858.168384,2.280173,-5.419108,-4.01479358.198383,0.451235,-6.157025,0.42863958.238361,0.204313,-3.576081,2.15257858.26836,1.559521,-0.70192,1.44728758.298358,3.321605,0.593608,1.30729258.338336,3.925043,-1.2015,0.82030858.368305,3.091001,-2.565456,0.12259758.398303,1.336235,-2.458666,-0.27914658.438282,0.203202,-0.130634,0.50652258.46828,-0.420401,1.829951,1.06171458.498279,-2.327106,2.498009,2.39742958.538257,-2.394697,3.654528,4.89477258.568225,-3.377951,2.233172,4.31778658.598224,-4.11315,-0.043269,4.47649658.638175,-5.15532,-1.610487,2.91425158.668174,-4.407858,-0.697371,0.63552258.698173,-2.896019,0.937901,-2.56378858.738151,-1.011822,2.585807,-4.74124958.768119,1.099932,2.07455,-4.89099758.798118,1.054821,-1.58321,-5.48738358.838096,1.655936,-3.592859,-4.90287258.868095,0.982165,-5.412994,-0.58361458.898063,-0.222344,-6.343232,1.72017758.938071,1.177599,-2.606201,2.03752558.96804,2.352107,-0.323209,1.61926258.998038,3.452821,0.34293,1.34364159.038016,4.005072,-1.285003,0.32981859.068015,2.560154,-2.927731,-0.17361959.097984,0.208064,-3.149019,0.03307659.137992,-0.627157,1.283179,0.5442859.16796,-1.191387,4.165667,0.35410459.197959,-1.914496,4.595695,1.26903659.237937,-1.839861,3.776189,3.8209159.267936,-2.201263,2.185108,4.44709159.297904,-3.970931,-1.160586,4.12139859.337913,-4.582961,-1.56679,2.51501559.367881,-3.292175,0.082248,0.03256659.39788,-2.371831,1.532114,-3.26874659.447868,0.401223,3.093854,-4.1214159.467857,1.631275,1.74015,-4.62370459.497825,0.508417,-2.419374,-5.07916159.537833,1.644092,-3.908737,-4.34577259.567802,1.188965,-5.089795,0.18829559.5978,0.293066,-5.693835,2.37486759.637759,0.925319,-3.597097,2.18393959.667758,2.981597,-0.959447,1.64826759.697726,4.096971,-0.507344,1.15976459.737735,4.031047,-2.044313,-0.10091559.767703,2.27891,-2.966847,-0.37230259.797702,0.649926,-2.783404,0.51322959.83768,-0.795232,0.156221,0.35737559.867679,-1.325415,2.565652,0.3956259.897647,-1.558275,3.998829,0.56432159.937656,-2.999999,2.851058,4.23533359.967624,-4.157584,0.571549,4.49774159.997623,-5.243469,-0.884587,3.4351860.037601,-4.499573,0.220898,1.29903260.0676,-3.066117,1.656681,-1.33941360.097568,-1.803905,2.706942,-3.66148860.137576,0.165524,3.280191,-3.88149660.167545,0.795811,0.174503,-4.70442560.197543,0.299262,-3.709345,-4.14140860.237521,2.22308,-4.614782,-3.78582660.26752,0.754148,-5.728144,0.63815360.297488,-0.130471,-5.075877,2.02912160.337497,1.464235,-1.874587,1.34778960.367465,2.711391,0.00723,1.30972960.397464,3.404037,-0.142916,1.0222160.437442,3.978286,-1.598552,-0.25969260.467441,1.979182,-2.424579,-0.61790160.497409,0.035538,-2.172184,0.38299360.537418,-0.559297,2.154689,0.67391760.567386,-0.948656,4.040938,1.02569860.597385,-0.648633,4.907252,1.63622560.637309,-1.735635,2.566989,4.54298760.667307,-3.046708,-0.570396,5.019660.697276,-4.333636,-2.674892,3.82540360.737284,-3.953422,-0.700699,1.26663460.767253,-1.899476,2.504897,-2.26956860.797251,-0.803374,4.270328,-4.39660560.837229,0.975831,3.010949,-4.01730760.867228,-0.016294,-1.53602,-5.00499560.897196,-0.091449,-4.490866,-4.69233260.937174,1.991922,-3.874591,-3.77088360.967173,0.578452,-5.347738,0.27894360.997172,0.045191,-5.252697,1.71800161.03715,1.522883,-2.587645,1.28346561.067149,2.464279,-0.021114,1.40517861.097117,4.259908,0.83462,0.84161761.137095,3.951324,-2.994297,0.0687761.167094,0.106703,-5.495852,-0.17813861.197093,-1.2622,-3.165046,0.05841261.237071,-0.037869,4.60799,0.56413661.267069,-2.217987,4.443649,1.27718961.297038,-1.917845,3.325216,2.70577461.337016,-3.38131,1.083795,4.27307161.367015,-3.926208,-0.456544,3.93774761.397013,-4.000971,-0.69879,2.58529561.436991,-3.209753,0.738825,0.22133261.46699,-1.199266,2.54483,-2.20441461.496958,0.069099,3.429185,-3.05540261.536936,1.388821,1.202351,-3.66259461.566935,0.402578,-2.16696,-4.70819361.596934,1.141435,-3.642266,-4.29911261.636895,2.056439,-5.342963,-3.40185161.666863,-1.414541,-7.546818,0.82271661.696862,-0.999425,-4.723619,1.39129661.73684,1.511907,0.529938,0.60739361.766839,2.891871,1.275443,0.24429661.796838,3.776939,-0.261833,-0.66538261.836816,2.033511,-2.97995,-0.90844961.866784,-0.087915,-3.528065,0.01621961.896783,-0.799776,-1.263784,0.99416561.936761,-1.096999,3.975137,1.40888361.966759,-1.217164,4.200119,2.29427361.996758,-2.236369,1.191142,5.05952862.036736,-4.511263,-0.731783,5.87862.066705,-4.491209,-0.628076,4.10216362.096703,-4.624769,0.443527,2.36580362.136681,-2.88775,2.772144,-0.62340862.16668,-0.858504,3.508259,-3.15965362.196679,-0.738211,1.704044,-4.69883362.236657,0.368778,-0.874366,-5.29368262.266625,2.040302,-0.85539,-5.42042362.296624,2.07199,-0.886025,-4.86463262.336602,-0.570437,-5.994569,-0.6367962.366601,0.121015,-4.99565,0.92951762.396569,1.48338,-3.153854,0.3929862.436578,2.790801,-2.258342,-0.07430562.466546,3.786058,-2.878685,-0.19144862.496545,4.150103,-3.35971,-0.47360262.536523,2.15692,-2.38738,-0.46876362.566521,-0.565507,-0.860236,2.1311962.59649,-1.425091,1.764094,1.80804962.636458,-1.435963,4.325542,2.97508762.666427,-2.054693,3.509685,4.50783562.696425,-3.229379,1.42322,5.51983362.736403,-4.744506,-0.772117,4.27851362.766402,-4.058573,0.130095,2.59221262.816359,-2.325621,2.012679,-0.58670862.896346,-0.48903,1.821592,-5.55550262.906325,0.163817,1.853933,-5.56469662.936324,1.055658,0.912282,-4.99832262.966323,1.119301,-1.650021,-5.36350662.996291,-0.41529,-6.836162,-1.24255863.036269,-0.377815,-6.168454,0.89305763.066268,1.287837,-2.678986,0.17824263.096267,2.554808,0.035718,-0.30776463.136245,5.512847,0.871423,-1.38535663.166243,3.739973,-2.279362,-1.94822663.196212,0.021272,-3.769373,-1.19219163.23619,0.289624,0.290109,2.48051363.266188,-0.591574,3.045926,3.1858563.296187,-1.28468,2.839374,4.43498263.336165,-1.298656,1.859918,5.4493363.366164,-1.812155,1.140043,5.22609463.396132,-2.293751,-0.95221,5.3724263.43611,-3.622921,-0.9336,3.06389463.466109,-3.355826,0.920748,1.21705663.496108,-1.122976,3.081068,-1.78324563.536086,-0.851387,2.731948,-4.54056363.566054,-0.206473,0.264784,-4.99074863.596053,0.018532,-2.004383,-5.38568663.635977,1.107993,-2.896382,-5.42985163.665976,1.371614,-4.660401,-3.60156463.695975,-0.784265,-6.189512,-0.84534863.735953,0.661147,-3.41781,-0.10182563.765921,1.859082,-2.005938,-0.24276463.79592,2.57553,-2.766824,-0.61117963.835898,2.979419,-4.62678,-1.02297163.865896,2.481425,-2.962105,-1.01773363.895865,0.736909,-1.460509,0.85271863.935873,-2.231237,0.587464,2.05065763.965842,-2.174923,3.358141,3.85682963.99584,-1.20167,3.875042,3.66836564.035818,-3.497839,0.958494,4.24692164.065817,-4.551597,-0.803023,4.92514864.095785,-4.167957,-0.044922,3.11893364.135794,-2.842768,2.374108,1.60120764.165762,-1.299366,3.088298,-0.35084264.195761,-1.055524,2.188301,-2.71774764.235739,-0.876599,0.736769,-4.40389364.265738,0.965037,0.47127,-4.39504864.295706,0.615642,-0.05669,-3.94862364.335715,2.032445,-2.293102,-4.93388564.365683,-0.653943,-7.220642,-2.40636964.395682,-2.274592,-7.795879,0.52427864.43566,1.030152,-2.193293,0.17923664.465658,2.11898,-0.261645,0.41368364.495627,3.56098,-1.224702,0.05982664.535605,3.941209,-3.818469,-0.6076864.565603,2.365306,-3.503739,-0.07969564.595602,-0.342092,-2.161737,1.63195264.635544,-2.216704,2.878131,2.4782464.665543,-1.870925,4.926731,3.38473764.695511,-0.675486,4.594351,2.60192464.735489,-2.921428,1.905423,4.10223964.765488,-3.350699,0.129592,4.55524364.795487,-3.203552,-0.203463,3.34837664.835465,-2.797808,0.03744,0.47816564.865433,-1.155114,1.147649,-1.89126864.895432,-0.324576,1.646026,-3.95295264.93541,0.984592,0.877613,-4.95926864.965409,0.852426,-0.893873,-4.44500964.995408,0.936085,-2.193566,-4.44001565.035386,0.966283,-5.089038,-3.14703965.065354,-1.817102,-6.441315,0.20653765.105362,-0.119494,-1.999467,0.0422965.135331,1.099605,0.20893,0.36247865.165329,1.970664,-0.188653,0.16542365.195298,3.230129,-1.155208,-0.42633165.235306,2.453178,-1.850235,-0.3474965.265274,0.78272,-2.713244,0.60796965.305253,-1.932562,-0.569711,2.44806365.335251,-2.209889,3.180657,3.67274965.36525,-1.774016,4.378056,4.3781865.405228,-2.49693,2.788043,4.43141865.435227,-2.191694,1.265756,4.17338165.465195,-3.617571,-1.464736,4.31691665.505173,-3.87945,-0.645775,2.17568865.535172,-1.778741,1.880731,-0.75515365.565171,-1.038467,3.273558,-2.94356465.605149,0.052965,2.89581,-3.96439765.635106,1.245065,1.105024,-4.35760865.665105,0.535359,-1.345214,-4.6884165.705083,1.887495,-3.866876,-4.51703565.735082,-0.100002,-7.656531,-0.77416365.76508,-0.953114,-6.361837,1.39689765.805058,1.886132,-0.856876,0.69569765.835027,2.526138,0.203183,0.89755265.865025,3.217325,-0.390811,0.19949365.905003,3.37961,-2.571523,-0.94776765.935002,0.748856,-3.740148,-1.58471365.964971,-1.163606,-1.306397,0.41622866.004979,-1.092884,4.273276,2.10210266.034947,-2.08727,4.436559,3.83334166.064946,-2.278178,3.316657,4.71318666.104924,-2.649746,1.411077,4.55563666.134923,-3.704805,-1.024639,3.81596966.164891,-4.034813,-1.325789,2.62324166.2049,-2.372274,1.013982,0.61676866.234868,-1.068007,3.248561,-1.90533866.264867,-0.695062,4.018804,-3.15691266.304845,0.726804,1.530343,-4.05604966.334844,-0.505023,-1.93802,-4.62594166.364812,0.167425,-3.602116,-5.0460266.40479,0.883319,-6.024335,-1.85316966.434789,-0.802978,-5.380145,0.53324566.464787,0.977983,-1.690827,0.78377166.504765,2.064108,0.294684,0.91542966.534764,3.117035,-0.372952,0.28631666.564732,3.524794,-2.059727,-0.68573266.604711,1.526018,-3.20567,-1.13221666.634664,0.379744,-2.236749,-0.61790766.664663,-0.007268,0.090938,1.26017166.704641,-1.243758,2.082338,2.87347266.734609,-1.458525,2.911381,3.47433166.764608,-1.456892,2.247961,5.14650166.804586,-2.947065,-0.932137,4.72521866.834585,-5.314517,-3.42825,3.53247466.864553,-6.210826,-2.286514,1.98861966.904562,-3.343541,4.228516,-2.12725966.93453,-1.224423,6.929487,-3.67389566.964529,0.565333,5.499749,-3.50884967.004507,-0.32174,-0.852846,-5.65588667.034506,-1.095291,-4.477419,-5.71941167.064474,1.874995,-3.792496,-4.80232567.104482,-0.066172,-6.171447,-0.65319567.134451,-0.503394,-5.73056,0.81047667.164449,1.145509,-2.460632,0.519867.204427,2.804257,-0.681411,1.25996667.234426,3.160884,-2.031111,0.82541867.264395,3.501687,-3.311391,-0.05223367.304373,2.043289,-3.494884,-0.77771667.334371,1.142393,-2.604492,0.02915667.36437,0.039956,0.315472,1.49716567.404348,-1.610803,2.773672,2.0852667.434316,-2.225873,3.235055,1.79294867.464315,-2.050188,2.508254,4.44916967.504293,-4.469519,0.076328,5.38851867.534292,-6.033876,-1.475384,3.93998667.564291,-6.352031,-0.343443,2.65540267.604269,-3.996915,3.604369,-0.62668767.634193,-2.247265,5.2559,-2.59969467.664192,0.123585,4.088026,-3.33370367.70417,-0.048422,-2.126523,-5.60840367.734169,-0.646397,-5.657781,-5.12746267.764137,3.100579,-3.728809,-6.29227567.804145,-0.728699,-5.160579,-0.30188367.834114,-1.160175,-5.079534,0.96391367.864112,1.017918,-1.590538,0.38919667.904091,2.583872,0.67097,1.00253367.934089,4.019021,0.111285,0.10915867.964058,4.144219,-2.034123,-1.0381668.004036,0.120895,-4.562607,-1.28387668.034034,-0.448307,-2.473725,0.37193168.064033,0.384237,2.642013,1.21757968.104011,-1.763125,3.544447,2.10700468.13401,-1.474308,4.376722,4.36372968.163978,-2.677759,2.135426,6.43732268.203956,-4.137071,-1.418678,5.77119868.233955,-5.80186,-2.609765,4.36959268.263954,-5.408374,-0.679954,1.90068268.303932,-3.136738,3.682306,-3.07472768.3339,-1.929576,4.795051,-4.1148268.363899,0.447836,2.944547,-4.35735368.403877,-0.905845,-3.206594,-5.72890468.433876,0.434979,-3.772473,-5.72570268.463844,1.730737,-3.013052,-3.56361368.503852,0.322693,-6.059089,-0.17298768.533821,0.905475,-5.142322,1.26013668.56382,1.955348,-3.576954,1.00900268.603798,4.398908,-1.359921,0.85300168.633761,5.8499,-1.692107,-0.58936968.66373,4.657601,-2.833717,-2.38330168.703738,1.169423,-4.49612,-1.1440568.733706,0.478899,-2.050105,1.17962968.763705,-1.307626,1.936496,1.65250668.803683,-2.921543,3.958236,4.67461868.833682,-2.188574,4.315079,5.84229668.86365,-2.965903,3.180017,4.94202368.903628,-4.262814,0.696352,4.44192468.933627,-5.528853,-0.625179,3.53615568.963626,-4.347427,1.141092,0.73343269.003604,-2.520008,2.637354,-3.70499969.033572,-1.800999,2.198537,-3.74196869.063571,0.716229,0.778408,-3.83276269.103549,-0.659516,-3.773645,-5.36122369.133548,0.83601,-4.709049,-4.96784369.163546,1.559073,-4.909699,-4.14900969.203525,-0.759389,-6.622921,0.83990569.233493,-0.108434,-4.522472,1.01578269.263492,1.270509,-1.511923,1.28748269.30347,2.58523,-1.338142,1.14449369.333468,3.30922,-2.3985,0.50520969.363437,2.754066,-2.940833,0.17207469.403445,-0.060146,-2.910198,0.30797869.433413,-0.503698,0.224669,1.63419269.463412,-0.976999,2.786379,1.95578469.50339,-1.876124,4.720846,3.07163669.533389,-2.460302,3.64968,4.93890669.563357,-4.112994,0.525845,4.79543969.603335,-4.751871,-0.52785,3.17698369.633309,-4.031634,0.81736,1.74424669.663308,-2.621672,2.156691,-0.57761169.703286,-2.188156,2.76868,-3.32275169.733285,-0.977769,2.365936,-3.63684969.763253,0.957528,0.047664,-3.6334369.803231,-0.378678,-3.976194,-3.96391869.83323,1.2752,-4.205325,-2.91962869.863229,0.419056,-5.952391,-0.27565469.903207,-0.448282,-4.077194,1.42287169.933175,0.622713,-1.24964,0.97870769.963174,1.995273,1.622972,0.88880570.003152,5.217828,2.179602,-0.65430370.03315,5.240096,-0.406938,-1.70708270.063119,1.513251,-3.562931,-1.24787370.103127,-1.762493,-3.984138,1.22252470.133095,0.321333,3.751918,0.95042170.163094,-0.029219,6.10747,2.43021870.203072,-1.069036,4.203603,4.61451470.233071,-1.134181,2.987262,5.01224670.263039,-2.429807,0.126667,5.00563270.303017,-4.855276,-3.512899,3.84949870.333016,-5.750235,-2.869454,1.86989370.363015,-4.234715,1.006844,-1.76114470.402993,-1.243284,4.745712,-4.0201270.432992,1.088693,3.429521,-3.9101370.46296,-0.673722,-2.51845,-5.01426670.502938,0.1056,-5.681972,-3.65090370.532937,2.787539,-3.851863,-5.29974470.562936,1.609739,-4.764219,-1.13808570.602914,-0.406567,-6.118585,2.0011270.632839,0.814533,-4.083947,1.81805970.662838,2.354757,-1.515766,1.68790570.702816,3.133214,-1.019238,1.05160270.732814,3.433608,-1.811965,0.0830670.762783,1.940237,-2.694539,-0.29459570.802791,0.375667,-2.058677,0.6010670.832759,0.203672,0.936042,0.63080670.862758,-0.989495,3.57538,1.89981670.902736,-1.241183,4.088544,4.68139670.932735,-3.367668,1.343387,4.69452370.962703,-5.333929,-1.122714,4.39000571.002681,-5.845301,-0.937815,2.17170371.03268,-4.452455,1.030901,-0.17930371.062679,-2.482041,2.968414,-2.76581171.102657,-0.446982,3.976943,-3.23157571.132625,0.552914,1.729902,-3.66084171.162624,0.143444,-2.498536,-4.08560371.202602,1.811753,-3.762956,-3.74725371.232601,2.179565,-4.625751,-1.77908571.2626,0.490706,-5.906696,1.18068771.302578,1.197453,-3.704993,1.66056671.332546,1.93068,-1.174648,1.82850471.362545,2.575925,0.271767,1.97837371.402523,4.270624,-0.069808,0.57205671.432521,3.299486,-1.396819,-0.56250971.46249,0.894527,-2.486428,-0.47275871.502498,0.29071,-0.135676,1.12154771.532467,-1.268048,1.347879,0.82681771.562465,-2.74364,2.378758,2.48596471.602443,-2.998822,3.168491,4.95295871.632429,-2.887008,1.83582,4.75750871.662397,-4.262407,-1.518245,4.12782371.702375,-5.463874,-2.482736,2.16088171.732374,-3.973697,0.264677,-1.47863571.762373,-2.234403,3.572622,-4.34505271.802351,0.577581,3.596999,-4.09415271.832319,0.500114,-1.267603,-5.4578771.862318,0.498751,-4.428676,-4.98940571.902296,3.061493,-2.943635,-3.21843971.932295,1.292749,-5.101552,-0.42979771.962263,0.918274,-4.849449,1.2685472.002272,1.627068,-2.498397,1.09768572.03224,2.382033,-1.012996,1.25732172.062239,3.062683,-0.902254,0.9476572.102217,3.825165,-1.46443,-0.18411372.132215,2.519783,-2.114951,-0.41414672.162184,0.181179,-2.124343,0.50022972.202162,-1.345073,1.782412,1.69440172.232161,-2.912813,2.923555,2.92122972.262159,-2.241874,3.75589,2.9603572.302137,-2.387178,2.509877,3.31608172.332106,-4.273491,-0.669746,3.80579972.362104,-5.979519,-2.595952,2.78432672.402082,-5.522892,-0.785633,-0.14164472.432081,-3.295821,2.053338,-3.10005772.462049,-1.176581,4.341413,-3.8649372.502058,1.229305,1.679317,-4.32128472.532026,0.566386,-3.821286,-4.62205572.572004,1.174067,-5.216246,-3.35551672.602003,1.637635,-5.873707,-0.57633372.631942,0.096768,-5.150784,1.4577572.67192,1.037568,-1.832375,1.56850772.701888,2.285605,0.263165,1.68884472.731887,3.738996,0.499758,1.43474972.771865,4.955298,-1.287696,0.15283772.801864,3.462252,-3.000734,0.07152972.831832,1.114927,-3.791817,0.04885972.87181,-0.322374,1.109289,0.29535672.901809,-0.464812,3.851705,1.5545772.931808,-2.750773,2.377468,1.95907572.971786,-2.949495,1.0878,4.15011373.001754,-5.326589,-1.112401,4.08695173.031753,-5.863824,-1.8352,2.25425473.071731,-4.658789,1.323146,-0.04381173.101729,-2.283617,4.256935,-2.1514873.131698,-0.709795,5.581859,-3.73813173.171706,0.140172,2.160002,-4.32204473.201675,0.074977,-2.986134,-5.04798373.231673,0.964576,-4.94471,-4.43985473.271651,1.573959,-5.603007,-0.83187473.30165,1.00435,-7.278096,0.56942973.331618,0.876758,-4.675408,2.03227573.371596,2.052607,-0.418683,1.42323573.401595,3.43844,0.981594,1.24934173.431594,4.283271,0.72205,0.46472773.471572,3.335028,-0.962445,-0.56595673.50154,0.940568,-2.104674,-0.32653573.531539,0.260362,-0.939147,0.99972673.571517,-0.91051,2.700977,1.50378473.601516,-1.752964,3.451262,2.94178673.631466,-1.784063,2.520278,4.06040173.671475,-3.55724,0.263981,4.16924673.701443,-5.429563,-1.70237,3.53513173.731442,-6.000891,-1.281292,2.14420273.77142,-3.869886,2.482459,-1.3048773.801418,-1.958621,4.272931,-4.19608673.831387,0.147755,4.530281,-3.7243573.871365,0.342629,-1.190896,-4.6586373.901364,-0.840008,-5.151552,-4.52963973.931362,1.9139,-4.009059,-3.90384673.97134,0.985666,-5.461486,-0.23446774.001309,-0.310641,-5.330253,2.36909374.031307,0.376423,-3.390482,1.90489974.071285,2.787333,-0.154776,1.58998974.101284,4.070951,0.214719,0.89103774.131252,4.712732,-1.125449,-0.2299774.17123,0.894485,-3.653809,-0.49175674.201229,-0.829029,-1.976509,-0.02008374.231228,0.31381,3.651977,0.27600474.271206,-0.611337,6.101712,1.79028274.311184,-0.192231,6.032764,4.12662974.331173,0.280953,5.625891,4.32865374.371151,-2.086308,-0.377219,4.8304374.40115,-5.209127,-4.682648,4.85862174.431118,-6.415167,-4.597504,2.77611774.471127,-3.690275,1.92915,-3.61107974.501095,-1.427901,5.398193,-4.27998274.531094,2.081818,4.416324,-3.79715174.571072,-0.904996,-3.681337,-4.96268274.601071,-0.434765,-5.212702,-5.18956674.631015,1.974966,-4.245144,-2.59147374.670993,-0.427018,-5.336458,1.59537774.700992,0.026927,-4.317284,1.53190174.73096,1.781868,-1.782984,1.41147774.770968,3.773504,-0.558429,0.86540474.800937,3.919989,-1.611372,-0.08753874.830936,2.056921,-2.828903,-0.69317474.870914,0.476213,-1.483782,0.40846674.900912,0.650322,1.866952,1.76697574.930881,-1.260461,2.641607,2.64857874.970859,-2.491958,2.576499,3.34816475.000857,-2.002986,3.022883,3.83385175.030856,-2.667332,1.134241,3.61486375.070834,-5.806519,-2.787741,2.69306875.100802,-5.737117,-1.529373,0.99578575.130801,-4.170661,1.947299,-1.462475.170779,-1.190401,5.827458,-3.57623775.200778,1.819565,5.18753,-3.54759975.230746,0.822859,-1.241815,-5.10571475.270724,-0.05485,-6.351025,-4.31594775.300723,2.681307,-4.66964,-3.47648675.330722,1.713578,-5.232884,-0.10901175.3707,0.146116,-4.652045,2.27508675.400668,0.75948,-2.458588,1.78700275.430667,2.371013,-0.581901,1.42695875.470645,3.187715,-0.972761,0.7821575.500644,3.007733,-2.213115,-0.23264775.530612,1.120843,-3.396354,-0.34346975.57059,-0.757652,-1.728855,0.87687775.600589,-1.097138,2.1868,0.67665875.630544,-1.840434,4.161533,0.71613675.670522,-2.396265,3.704726,2.10078175.70049,-3.114168,3.228994,3.85873575.730489,-4.601998,1.163259,4.21630875.770467,-6.06194,-0.847674,2.58929975.800465,-5.845143,0.179638,0.80759575.830434,-4.074472,1.539714,-1.77028675.870442,-1.662256,4.274929,-3.94814275.900411,1.263865,3.81866,-4.12948275.930409,1.677105,-1.877884,-4.59368575.970387,0.810682,-5.934613,-4.21719376.000356,2.608656,-4.89206,-2.56454576.030354,-0.170753,-5.844281,0.70388276.070332,-0.205207,-4.10246,1.95078476.100331,1.177083,-1.376675,1.66779176.130299,3.050033,0.142162,1.31857676.170308,4.738968,-0.656226,-0.07255876.200276,3.598808,-2.534699,-0.37218576.230275,0.711883,-3.554436,0.3501276.270253,-0.258407,0.658537,1.24451676.300252,-0.233421,4.259633,0.59769476.33022,-1.9163,4.204158,1.35624376.370198,-1.436897,4.307756,2.57415576.400197,-1.907841,4.198654,3.9130676.430165,-4.335698,0.720131,4.92108876.470174,-7.256329,-2.572836,3.63817176.510152,-6.283903,-0.708302,-0.0046776.530141,-4.733943,1.279378,-2.25428776.570119,0.218878,6.374915,-3.19454176.600118,2.560203,4.200434,-3.98592276.630035,0.387201,-3.221253,-4.69915276.670013,1.188743,-6.416841,-4.04607876.700012,3.034793,-4.846207,-4.03606376.72998,0.323402,-5.280897,0.68946176.769988,-0.422459,-4.954317,2.0234376.799957,1.38176,-2.076729,1.78922976.829955,3.333135,-0.198298,1.66195776.869934,4.547552,-0.518965,0.42561476.899932,3.78649,-2.260319,-0.28567876.929901,0.750487,-3.072129,-0.11984176.969879,0.247164,1.174721,0.93064976.999877,0.380458,4.223506,0.95509877.029846,-1.879455,3.920024,1.44243277.069854,-0.996972,3.930425,3.85988577.099822,-1.94259,2.34765,4.12763877.129821,-4.925954,-1.207707,4.8182577.169799,-7.567704,-3.230173,2.83200877.199798,-6.235261,-0.285268,-0.38357577.229766,-3.822821,3.069203,-4.10634677.269744,-0.168718,5.431574,-3.96294177.299743,1.554124,2.791628,-4.6354177.329711,0.085911,-3.409199,-5.09074677.36972,1.282699,-5.131479,-4.4626277.399688,2.224451,-5.554456,-1.73291877.429687,-0.390865,-7.784836,1.19642677.469665,-0.323126,-4.984416,2.52550977.499664,1.306369,-1.634863,2.16074477.529632,3.117893,0.581772,1.79598177.56961,4.458835,0.137713,0.47665977.599609,3.498053,-2.040558,-0.00518877.629562,0.588179,-3.853838,0.44264677.669571,-0.770421,-0.606088,0.91014777.709549,-0.184072,4.434183,0.14704377.729538,-0.66486,4.95515,0.43807977.769516,-1.701525,3.697652,3.30552777.799514,-4.063342,2.599358,5.04631877.829483,-5.194154,0.660135,4.74602777.869461,-6.785046,-1.309127,2.79089577.89946,-6.478439,-0.210289,0.18895177.929428,-3.557241,1.87128,-3.56551677.969436,0.354223,5.198853,-4.29903577.999405,1.669531,2.692013,-4.65237178.029403,0.035389,-3.33725,-4.77206878.069381,1.278534,-5.243196,-3.9710978.09935,1.950463,-4.777292,-2.06041778.129348,-1.156666,-5.942318,1.41728778.169326,-0.341227,-3.809362,2.1050878.199325,1.142273,-1.163166,1.74532178.229294,2.719856,0.241841,1.61939678.269302,3.815674,-0.272941,0.68169978.29927,3.336686,-1.808891,0.20090978.329269,1.042442,-2.92587,0.46518578.369247,-1.352179,-1.721128,1.55745478.399215,-1.058989,1.436896,1.15886278.429214,-1.264324,3.956447,0.6526178.469192,-0.773748,5.375649,2.88142578.499191,-3.06217,2.857613,4.44896478.529159,-4.539198,-0.076364,4.53137278.569137,-6.211925,-1.329999,2.95107678.599136,-4.68489,0.215507,0.40515978.629082,-2.648979,1.756055,-2.76008178.66906,0.508499,4.07896,-4.03550878.699028,2.56894,2.303239,-4.75898278.729027,0.648293,-3.121692,-5.51841878.769005,1.965583,-5.189042,-5.24678278.808983,0.412648,-4.868984,-0.22612478.828972,-1.179996,-5.386978,1.73006378.86895,0.065441,-3.057906,1.67586678.898949,2.269849,-0.855986,1.25143578.928948,3.458889,-0.446939,0.96658178.968926,4.382488,-1.622266,-0.65002578.998894,2.051551,-3.194526,-1.23761379.028893,-0.46128,-2.977152,-0.27063679.068871,0.136131,2.508478,0.66101579.098869,-1.047846,4.242672,1.03007279.128838,-1.79466,4.107197,1.46082979.168816,-1.641455,2.72297,4.26716279.198814,-2.46427,1.415255,4.47564279.228813,-4.88875,-1.403218,4.48350479.268791,-5.958844,-1.354868,2.39945579.29876,-4.199076,1.392635,-0.73275279.338738,-1.874897,4.095577,-4.00535579.368736,0.502552,5.059556,-3.87534479.398735,1.883956,1.58306,-4.7391379.428703,0.136916,-3.487854,-4.77257179.468681,2.117592,-4.864051,-4.83618579.49868,0.576525,-6.249695,0.30810379.538658,-1.339242,-6.727568,2.82578779.568657,0.66,-3.471565,1.90393479.598625,3.38836,-0.028328,1.14624179.638572,4.582215,0.662646,0.09124479.668571,3.762117,-1.22185,-0.76905179.698539,1.466983,-2.704112,-0.73457179.738548,-0.034434,-1.293658,1.69841979.768516,0.111149,1.352202,1.42501279.798515,-1.893482,2.550036,1.35569479.838493,-1.604657,4.652538,3.29357879.868461,-3.365722,3.419952,5.10457879.89846,-4.014606,2.013666,4.87549579.938438,-6.088337,-0.654426,3.37520779.968437,-5.952867,-0.416099,1.32998879.998405,-3.958838,1.625354,-2.27183980.038414,-0.566172,4.329304,-5.26343580.068382,2.552033,3.590822,-4.7887980.098381,1.632848,-2.244355,-5.36190580.138359,0.32178,-5.453141,-4.42395480.168327,2.260689,-2.815645,-4.16216780.198326,-0.348147,-3.530843,0.33555280.238304,-1.393763,-4.270834,1.75916480.268303,-0.262016,-2.701779,1.22274680.298271,0.809409,-0.934824,1.05638480.338249,2.793709,0.997204,0.33012380.368248,3.368575,-0.405122,-0.46791180.398246,1.702437,-1.763824,-0.5477180.438224,-0.686696,-2.507883,1.77938780.468193,-1.511008,-1.559143,2.13632780.498191,-2.00864,0.881343,1.53628680.538169,-1.008878,6.19111,4.46277480.568168,-3.159347,3.783479,5.37378380.598137,-4.177377,0.823777,5.14343780.638089,-6.674583,-1.798085,3.57794980.668087,-6.181784,-1.978059,0.74880580.698056,-4.086961,-0.651579,-3.53623680.738064,-0.385006,3.473914,-4.65750180.768032,2.662054,3.598526,-4.86625880.798031,1.341159,-1.622919,-5.99214480.838009,1.949188,-3.210754,-4.68335580.867977,1.224819,-4.184676,-0.99308680.897976,-0.137936,-5.437865,1.34493280.937954,0.988304,-3.923301,1.23562280.967953,2.051007,-2.328187,0.97992780.997921,2.930309,-1.070998,0.95604781.037899,4.01805,-1.302571,0.22534481.067898,3.074049,-2.362163,-0.39296881.097897,1.371541,-2.414664,0.29846881.137875,0.234204,0.056407,1.15135781.167843,-0.576841,2.502852,1.57488481.197842,-1.731422,3.457272,2.40721681.23782,-2.940885,1.7761,4.68998681.267819,-2.994483,1.06164,3.97562381.297787,-4.427505,-0.906865,3.51189181.337765,-5.654755,-1.509625,1.90612381.367764,-3.957465,0.412948,-0.94222981.397763,-2.425088,2.767407,-4.2963781.437741,0.253652,4.268116,-4.36724781.467709,0.891599,0.642416,-4.77139181.497708,0.026548,-3.459855,-5.04310481.537686,2.20111,-3.917453,-2.22077581.567684,-0.122004,-5.680672,1.60052981.597653,0.696891,-4.192887,2.34646481.637591,2.068874,-1.831412,1.56918381.66759,2.806269,-0.865124,1.61653381.697558,3.736882,-1.005341,1.15695381.737566,3.424434,-2.63152,-0.04302581.767535,1.332736,-2.856136,-1.26922881.797533,-0.036713,-1.251944,-0.61763481.837511,-0.838944,1.290346,1.22380681.86748,-3.586835,1.764338,1.48722681.897478,-2.74934,4.100493,3.32218781.937457,-4.255992,3.07505,3.36914581.967455,-4.822863,1.684448,3.1522981.997424,-4.901821,0.813322,2.39123982.037402,-3.287048,-0.04139,-0.21827382.0674,-2.72135,-0.625601,-3.34346582.097399,-1.925195,0.366934,-4.26624682.137377,2.132156,1.794653,-4.34955282.167345,1.647289,-0.745303,-4.99666582.197344,1.087626,-2.028422,-2.1668782.237322,-0.160217,-6.335602,0.64029982.267321,1.297729,-4.010448,1.56629582.297289,1.763243,-2.126732,1.21681782.337267,2.817376,-0.620893,0.99490582.367266,3.762255,-0.403171,0.56670282.397234,4.112149,-0.837376,-0.20852982.437243,1.543289,-1.993151,-0.53657982.467211,-0.702408,-1.79184,0.19010282.49721,-0.882653,0.898499,0.96777882.537188,-2.012995,3.516376,2.26006782.567156,-1.89486,4.611902,2.75041982.597155,-2.202615,4.163602,3.89362382.637113,-3.568792,0.108112,4.54701382.667112,-5.505741,-2.639401,3.746382.69708,-5.550087,-1.589091,1.1541382.737058,-2.994984,2.169958,-4.5842182.767057,-0.737221,4.195576,-4.61401482.797056,1.554731,3.552532,-4.06296982.837034,-0.097316,-3.615237,-4.8983282.867002,0.931779,-5.003964,-3.67868982.897001,3.054269,-3.153281,-3.65843482.936979,0.050306,-5.655009,1.31351382.966947,-0.325968,-5.415675,2.77728782.996946,0.499519,-3.315465,2.12232483.036924,2.477613,0.246573,1.49696983.066923,3.723151,0.626753,0.53467883.096891,4.048882,-0.533707,-0.70965583.136869,0.974655,-2.129864,-0.44813783.176877,-0.737399,-0.883768,1.4773883.196866,-1.384565,1.243023,1.78825683.236844,-2.521231,3.161838,2.28260483.266813,-1.630039,4.917576,3.46987183.296812,-2.973957,3.863902,4.96148483.33679,-3.693227,-0.150899,5.09151283.366788,-5.846822,-3.108838,4.42370983.396757,-5.626239,-1.987508,0.82793183.436735,-3.08947,1.55147,-4.84039483.466733,-0.557648,4.023648,-4.54652383.496702,0.929643,3.291848,-4.35622383.53671,-0.478345,-3.492496,-4.72645883.566678,1.493888,-3.592394,-3.53983283.596677,1.280952,-4.593366,-1.11194183.636607,1.584509,-5.253801,1.26680683.666576,1.480747,-4.393725,1.76868483.696574,2.516751,-2.479299,1.91395283.736552,3.796919,-0.290452,1.73687683.766551,4.777691,-0.436524,0.73625883.796519,3.39583,-1.610667,-0.65744383.836497,0.446553,-2.09302,-0.56708683.866496,-0.358289,-0.04905,0.59329283.896495,-1.908291,1.920126,1.23888883.936473,-1.89094,4.885876,2.57554683.966441,-3.627287,3.494796,4.92413383.99644,-4.423441,1.181821,4.48398284.036418,-4.87423,-0.276156,2.90270984.066386,-4.976649,-0.299365,1.44423884.096385,-4.099695,0.339721,-1.01769484.136363,-1.593755,2.760259,-3.45078484.166362,1.000612,2.909017,-3.92494884.19633,0.994964,-1.596521,-4.9546884.236308,1.126234,-4.765953,-4.09115284.276317,1.802911,-4.260843,-1.27945784.296306,0.948821,-5.315066,0.3139884.336284,1.097298,-3.876867,1.71360884.366252,1.136703,-2.309397,1.68779484.396251,2.426912,-0.011485,1.37971384.436229,4.711605,-0.256121,0.05900184.466228,3.8583,-2.464768,-0.68028384.496196,1.011243,-3.154057,-0.32867584.536174,-1.131844,-0.48317,0.43335984.566173,-1.400504,3.798172,0.14681184.596141,-2.556449,4.640849,1.70319484.636102,-2.614713,3.723489,4.15946984.666071,-3.388012,2.6642,4.47355184.69607,-3.539119,1.565839,4.26713984.736048,-4.879922,-0.990114,3.04995184.766016,-4.928018,-0.386884,1.4488984.796015,-2.904772,1.344849,-2.07931484.835993,-0.7872,3.033121,-4.06210184.865991,1.700887,1.76228,-4.13998484.89596,0.571029,-3.117522,-4.90468284.935938,2.233306,-4.980684,-4.37728484.965936,1.841214,-5.718724,-2.14663584.995905,0.885743,-6.53464,0.70532585.035913,1.38912,-3.92668,1.80516485.065882,2.630575,-1.733684,1.56747285.09588,3.685382,-0.892308,1.6097385.135858,4.58584,-1.134259,0.29347185.165827,4.036584,-1.851645,-0.58985885.195825,1.756452,-2.967445,-0.28726885.235803,-0.903668,-1.224706,0.58911185.265802,-1.375746,2.454278,0.68473485.29577,-2.340143,3.573386,1.13717785.335748,-3.219491,3.243659,4.41174785.365747,-4.036126,1.929422,4.59677685.395746,-4.805492,0.116599,4.08873385.435724,-5.188908,-0.510767,2.30673785.465692,-4.325158,0.56873,-0.28215185.495691,-3.161996,2.234423,-3.20455485.535669,-0.645549,3.875885,-3.8611985.565637,0.774246,2.197314,-4.42717285.595636,-0.007241,-2.188065,-5.04816685.63558,2.084146,-4.165304,-4.38042585.665579,0.960239,-5.937885,-0.56463185.695547,0.276631,-5.87814,2.11286885.735525,1.294976,-3.22499,1.67776885.765524,2.502017,-1.038041,1.2483185.795523,3.63402,-0.374527,0.89253485.835501,4.366666,-2.157112,-0.23633285.865469,2.177716,-2.991422,-0.9550385.895468,0.338235,-2.325008,-0.15514685.935446,-0.052528,1.13909,1.24937985.965414,-1.999728,2.320997,2.18573785.995413,-2.530133,4.028055,3.52418386.035391,-3.404703,3.137416,5.00237486.06539,-4.008598,1.029276,4.58309186.095358,-4.745172,-0.765323,3.19045786.135336,-4.501192,-0.229003,0.72746986.165335,-2.809297,1.270742,-3.06809786.195334,-1.752579,2.136351,-5.19991786.235312,0.594448,1.439389,-4.50903986.26528,0.904312,-1.714275,-4.9362386.305258,1.446095,-2.761083,-3.92872486.335257,0.706304,-4.942386,-0.87360886.365256,0.515325,-6.13628,0.6009386.405234,1.343638,-3.563944,1.66403486.435202,2.102178,-2.252642,1.24681486.465201,3.058198,-1.172737,1.18756886.505179,4.096404,-0.659683,0.44516886.535147,3.871259,-1.160448,-0.27837786.565146,1.07022,-2.733768,0.10732486.605124,-0.517676,-0.96761,1.04265286.635103,-0.32053,3.007027,0.49234886.665072,-1.649001,4.113181,1.74264686.70505,-2.584316,2.79254,4.40200286.735049,-3.43581,1.127233,4.64211886.765047,-4.063502,-0.531283,4.23880386.805025,-4.304397,-0.866738,2.60956786.834994,-3.02416,1.326108,0.02177386.864992,-1.811223,3.744129,-3.00040386.90497,0.124585,4.042483,-3.74723886.934939,-0.110103,0.161282,-4.70783886.964937,-0.812146,-3.940212,-5.36126487.004915,2.648275,-2.791003,-4.238187.034914,1.7298,-4.454029,-1.43867487.064883,-0.170732,-6.522088,1.31375987.104861,0.179627,-4.70289,1.66194187.134859,1.162716,-1.572071,1.54559987.164858,2.740687,0.625569,1.23667287.204836,4.726578,-0.179834,-0.24992287.234804,2.954871,-2.108363,-0.66940987.264803,0.805551,-2.949636,-0.06559587.304781,-0.308051,-0.660164,1.63119587.334749,-2.362899,0.782191,2.1235387.364748,-3.151951,3.212423,3.22119687.404726,-3.384514,4.465156,4.93792787.434725,-2.527189,3.553483,3.85945487.464693,-3.840969,-0.286751,3.88160387.504671,-5.790609,-2.50919,2.12875787.53467,-3.503408,1.058693,-2.09305587.564669,-2.259596,3.949982,-4.76587387.604647,0.252524,4.012821,-3.82772687.634615,-0.017426,-1.435737,-5.20414187.664576,0.028798,-4.989744,-4.44073187.704554,2.659928,-4.125906,-3.60843787.734522,1.28168,-5.151053,0.38877587.764521,0.417594,-5.045996,2.08452787.804499,1.220016,-2.629852,1.32279487.834498,1.877796,-0.821223,1.27041487.864466,2.747725,-0.446634,0.83931987.904444,3.828998,-1.222391,-0.35554787.934443,2.196281,-1.817892,-0.73671187.964442,0.25302,-2.439721,0.30485588.00442,-0.614598,0.191772,1.3214588.034388,-1.617022,2.173954,1.82311388.064387,-1.667735,3.530469,1.93164588.104365,-2.721552,2.403653,4.00673688.134333,-4.18481,0.033715,4.24058188.164332,-5.272177,-1.405664,3.11390288.20431,-5.066422,0.368988,0.77946288.234309,-3.163272,2.387162,-2.16781488.264277,-1.918375,3.624804,-4.05065888.304255,1.012053,3.439355,-3.92684688.334254,0.318202,-1.286227,-5.03645188.364252,-0.149399,-4.632912,-4.12774388.40423,1.798537,-4.215223,-2.0285888.434199,0.45769,-6.096628,0.83668888.464198,0.392567,-5.381006,2.16717388.504176,1.411634,-2.147577,1.6946688.534144,2.895771,0.294531,1.65962788.564143,4.311586,0.518928,0.79355988.604121,4.225317,-1.131139,-1.00163288.634119,1.739883,-2.918245,-0.9627588.664058,-0.1885,-3.73994,0.1730388.704036,-0.399855,1.074006,0.89872288.734034,-1.138295,3.679744,1.28758888.764003,-1.336146,4.500156,1.87988488.804011,-2.863902,2.353338,4.75777588.83398,-4.991529,-0.842473,4.97481588.863978,-5.869772,-1.764305,3.55830188.903956,-4.461865,1.204711,0.32825488.933925,-2.7017,3.623219,-2.30975688.963923,-1.380534,3.957664,-3.6582689.003901,0.956738,1.256612,-4.31447789.0339,0.499573,-3.089302,-5.09009989.063868,1.160483,-3.969754,-4.86637289.103846,1.107847,-5.604686,-0.46234289.133845,-0.819913,-7.608637,1.6038989.163814,0.045465,-5.546498,1.75219889.203822,2.485527,-1.254904,0.85215489.23379,3.701853,0.422129,0.48512789.263789,4.686533,0.780025,-0.23234989.303767,3.862272,-0.889078,-1.04089889.333735,0.780479,-2.546697,-0.48234289.363734,-0.905359,-0.71918,0.97574189.403712,-1.648585,3.362059,2.15573489.433711,-1.63283,4.751173,3.17566289.463679,-3.149624,3.661313,5.45251189.503657,-3.97074,0.725335,4.52968989.533656,-5.237915,-1.22371,3.34381989.563624,-5.572881,-1.695553,1.14225389.603602,-3.187296,0.536519,-4.21678589.633601,-1.150719,3.169017,-4.96777889.663548,0.816902,3.543555,-3.91267789.703526,-0.171028,-3.350487,-4.36015589.733494,0.243303,-5.576763,-2.63164489.763493,2.583366,-4.631638,-2.23141789.803471,0.23185,-6.201971,1.8232789.83347,0.258671,-4.460867,2.73383589.863438,0.349337,-2.016697,2.32144189.903416,1.93806,1.753879,1.99108589.933415,4.445119,2.541848,0.76914989.963383,5.127399,0.28396,-0.47108390.003361,0.666586,-3.906431,-0.27953490.03336,-0.824912,-3.848329,1.27924590.063359,0.225559,1.057282,1.08311590.103337,-2.156329,4.174926,1.26179290.133305,-2.135333,5.522153,3.85641890.163304,-3.660627,3.44624,4.75401390.203282,-4.133427,0.283038,4.31096590.23325,-5.122676,-1.385708,3.19185890.263249,-4.667848,-0.804155,1.03669990.303227,-2.442571,2.003934,-3.56948790.333226,-0.418682,3.897268,-4.10154390.363194,1.069636,1.882864,-4.44352390.403172,0.242589,-4.626289,-4.88623990.433171,2.318642,-4.352141,-4.49659490.463169,1.969025,-4.466107,-2.00098190.503148,0.234492,-4.854288,1.67770490.533116,0.514477,-3.888978,1.55159490.563115,1.648215,-1.914879,1.08893590.603093,3.210263,0.034355,0.47475390.633061,4.013115,-1.030055,-0.28013990.66303,2.567135,-2.359685,-0.7901890.703008,0.571039,-1.258755,0.3283990.733006,-0.172389,1.72683,0.86484290.762975,-1.364414,3.493884,2.13290690.802953,-1.640971,4.320146,3.00293190.832951,-2.078284,3.78472,4.77684390.86292,-2.577149,1.266836,4.5221890.902928,-5.395042,-2.947993,3.9101390.932897,-6.248249,-2.552174,2.08681590.962895,-4.079306,0.783118,-1.63019791.002873,-1.230068,4.407308,-4.65126791.032842,1.656121,4.451655,-4.15452691.06284,1.035542,-1.136188,-4.86554891.102818,0.375716,-5.565552,-4.2666191.132817,2.297521,-3.755019,-1.77452191.162785,0.833735,-6.902725,0.74996891.202764,0.61369,-5.895886,2.9783491.232762,0.936592,-3.434996,2.47706691.262731,2.685933,-0.054244,2.0580791.302709,4.2793,1.45344,0.8656891.332707,4.233018,0.167504,-0.4471291.362706,1.325338,-2.192891,-0.86774691.402684,-1.07516,-1.876288,0.71440591.432652,-0.041674,2.209181,1.19651291.462651,-2.008743,3.901719,2.2187691.502629,-1.728364,4.842275,4.85979291.532597,-2.688952,2.421588,4.2346991.562596,-4.059636,-0.520906,4.1821791.602574,-5.639324,-2.387201,2.39687591.632573,-4.797227,-0.965837,0.01995191.662527,-3.170705,1.619616,-3.50817591.702505,0.149726,4.056164,-4.23068491.732504,0.921946,1.11685,-4.63537591.762503,-0.324093,-4.324815,-4.46081791.802481,2.754844,-4.405462,-4.57434791.832449,2.221785,-4.162728,-1.32944691.862448,0.314632,-5.175561,1.59966391.902426,0.100103,-4.006712,2.21291191.932394,2.36668,-0.745795,1.92101391.962393,4.41013,0.100226,1.09054892.002371,5.377745,-1.959271,-0.75968892.03237,2.524188,-3.517992,-1.43301492.072348,-0.157982,-1.371317,0.42607492.102316,-0.337698,3.013603,0.75266392.132315,-1.673208,4.459472,1.75298992.162283,-1.497574,5.646229,2.92287992.202292,-2.238212,3.939867,4.78510292.23226,-2.5673,0.860569,4.89530192.262259,-4.428457,-2.482868,4.27676292.302237,-4.922795,-1.954558,1.47125792.332205,-2.593777,1.076024,-2.58996492.362204,-2.475069,2.609434,-5.3605292.402182,1.450754,2.97239,-4.32685492.432181,0.949936,-1.785728,-4.91461592.472159,0.966119,-4.295079,-4.68472692.502127,1.546065,-5.150526,-1.36524392.532126,-0.359017,-6.906715,1.34114792.562094,0.087397,-4.929325,2.37455392.602072,2.024695,-1.326548,1.53471792.632071,3.24488,0.342792,1.11865992.662015,4.262075,-0.159935,0.18237492.701993,2.306438,-2.990414,-0.37654592.731961,-0.487308,-3.56229,0.08162392.771939,0.28559,1.54281,1.34475292.801938,-0.497605,3.284405,1.13552692.831906,-1.305231,4.111128,2.78716592.871914,-2.74779,2.25286,4.55094892.901883,-3.422695,0.616403,4.50613292.931882,-4.940918,-1.47768,3.51367592.97186,-4.940553,-0.489585,1.10092493.001828,-3.277544,1.615129,-2.01100393.031827,-1.868207,2.947487,-4.69760793.071805,1.131229,3.441234,-4.34139193.101803,0.82589,-1.694659,-4.91140893.131772,0.7096,-4.663789,-4.26347593.17175,1.438671,-5.471057,-1.92545593.201748,-1.058169,-6.703877,2.44004893.231717,-0.699327,-5.17721,2.63997193.271695,1.93262,-0.875713,1.51905493.301694,3.168811,1.194478,1.20444293.331692,4.750082,1.183904,0.11201493.37167,3.301111,-2.714779,-1.14039593.401639,0.09769,-3.806949,-0.48086193.431637,0.336562,0.456193,1.56913593.471615,-1.413656,2.858334,1.67926393.501584,-2.245155,3.862768,3.03956993.531582,-1.446075,4.544257,4.93192493.57156,-2.16589,2.559867,4.44942493.601559,-3.810207,-0.727327,4.22393293.631528,-4.961313,-2.301795,3.31088693.671482,-3.397828,-0.644299,-0.81261993.70148,-2.140771,1.910706,-4.82487393.731449,0.364625,4.135441,-5.10394393.771457,1.774332,0.294499,-5.27928593.801425,-0.51503,-5.076647,-5.32454193.831424,1.783828,-4.90508,-4.09482293.871402,0.041472,-7.085274,0.38558893.90137,0.016742,-5.924928,2.35679493.931369,0.801147,-3.556497,1.62538593.971347,2.932676,-0.440424,0.97264994.001346,3.97723,0.095125,0.49991494.031314,4.095305,-0.765579,-0.36257494.071292,1.030634,-2.164333,-0.48125694.101291,-0.546181,-1.996144,0.84783894.131259,-0.790654,1.202203,1.32553294.171237,-1.689734,4.01177,1.88869894.201236,-1.563242,4.593858,2.60364894.231235,-2.04211,3.661723,4.69649694.271213,-4.583895,-0.840525,5.31601194.301181,-6.618664,-3.139365,4.01647994.33118,-6.537328,-1.659032,1.24972794.371158,-2.929011,1.521429,-4.26825494.401126,-1.084095,3.442934,-4.86139694.431125,1.241995,4.093839,-4.76822594.471103,0.152303,-2.09562,-5.65241594.501102,0.728198,-4.52391,-4.40222694.53107,1.405686,-5.266241,-1.88413794.571048,-0.45953,-6.571621,2.10080494.601047,0.618544,-3.865027,2.23457894.631015,1.804126,-0.990919,1.59422994.671002,3.939108,1.031274,0.92832594.70097,4.898977,0.04442,-0.19282294.730969,3.404386,-2.320399,-0.73964894.770947,-0.56709,-4.061056,0.17113194.800915,-0.149699,-0.423876,1.51014894.830914,-0.109465,3.028589,0.98275494.870892,-0.976201,4.548741,2.36179694.900891,-1.518726,3.659712,5.4477594.930859,-1.809709,2.156868,4.9272794.970837,-4.674078,-2.17661,4.41236795.000836,-5.766043,-2.544693,3.01422895.030804,-4.693259,-0.145096,0.02603395.070782,-2.384612,3.445965,-4.46700695.100781,-0.390398,4.284159,-4.48433295.13078,0.991711,1.824553,-4.45758995.170758,0.144552,-2.539144,-5.0559895.200726,1.717541,-2.019976,-3.24136895.230725,1.352062,-4.829254,-1.1585795.270703,0.323174,-6.78143,1.65749895.300671,0.996404,-6.55416,1.43766495.33067,2.817677,-4.169097,1.58572495.370648,4.175073,-1.737016,1.09919895.400647,4.059761,-1.798067,0.2096295.430615,2.050355,-2.466365,-0.60624995.470593,-0.318685,-1.247851,1.19938195.500592,-0.727654,1.704564,0.8382295.53056,-1.72839,3.81188,1.22160295.570538,-1.708526,4.317737,2.64278795.600537,-2.792244,3.343562,4.05876295.630535,-3.326225,1.855227,4.16352695.670454,-4.851335,-1.062575,3.06846895.700423,-4.88063,-0.794397,1.58181195.730422,-3.002291,1.078068,-1.34397195.7704,-1.572576,2.949242,-4.97446295.800368,1.191265,3.312885,-4.640595.830367,1.629739,-0.235207,-5.02705295.870345,0.545932,-4.494303,-4.62010695.900343,1.9713,-4.540023,-2.79938195.930312,-0.120714,-6.036589,1.08904795.97029,-0.531383,-5.30676,2.41174196.000288,0.657723,-2.683276,1.93538296.030257,2.031523,0.030864,1.6599996.070265,4.477028,1.027461,0.35363396.100234,4.243062,-0.957739,-0.55929196.130232,0.805591,-3.581336,-0.32860596.17021,-2.504426,-3.158542,0.5687296.200179,0.225242,2.863786,0.18105896.230177,-0.276134,5.114385,0.45073396.270155,-1.336258,4.952277,4.35225796.300154,-2.943596,2.65938,5.47166696.330122,-2.961319,0.782363,5.13167396.3701,-5.725052,-2.239672,4.08586196.400099,-5.955034,-1.763918,1.68142196.430068,-3.944016,0.45896,-2.29412796.470046,-1.477073,4.340127,-4.66539696.500044,2.079738,4.62145,-4.59974896.530043,1.154284,-1.234048,-5.43294696.570021,0.444163,-6.094457,-4.81450496.599989,2.528024,-5.558214,-3.22045296.629988,0.160276,-6.095844,0.73166396.669955,0.372011,-4.896095,1.74658896.699923,1.954523,-2.383081,1.46834496.729922,3.935495,-0.607966,1.36728196.7699,5.211621,-1.197103,0.4067496.799899,3.914244,-2.907556,-0.09700896.829867,0.950401,-3.381154,0.03176596.869845,0.041036,1.182714,1.79787296.899844,-0.608159,3.343137,1.5367796.929843,-2.005533,3.977396,2.46991196.969821,-1.5808,3.237788,4.88271396.999789,-3.061352,1.304966,4.72831397.029788,-5.6496,-1.504557,4.44261297.069766,-6.106932,-1.151463,1.55074697.099734,-4.300409,2.148043,-1.70531897.129733,-2.316876,3.814913,-4.5416197.169711,0.160883,5.159802,-4.40113997.19971,1.562341,2.419008,-5.06573897.229678,1.326802,-2.186421,-5.08437397.269656,1.61325,-5.24225,-6.27270697.299655,2.668276,-4.231471,-3.86369697.329623,-0.608994,-7.140185,1.29307997.369632,-1.162708,-7.948384,1.99020297.3996,0.811238,-4.350107,2.07287197.429599,2.684811,0.230966,1.77220697.469577,5.071649,0.586208,0.60324197.499545,2.964376,-3.195226,-0.30292697.529544,-1.23093,-5.300691,-0.43138697.569522,-0.906827,0.781422,0.49198497.599521,-0.660066,4.366069,1.35980297.629489,-3.809478,3.221887,1.87329197.669408,-3.334684,3.740899,4.97933797.699407,-3.093785,3.573797,4.28804697.729375,-4.091537,1.221115,4.06371197.769353,-5.480634,-0.484896,2.80843197.799352,-4.319234,0.817759,-0.31924897.829351,-2.634326,2.652379,-3.78661297.869329,0.331524,3.439632,-3.79614197.899297,0.887782,-0.261096,-4.85207797.929296,-0.743762,-4.547552,-4.88456197.969274,2.617526,-3.339382,-2.82794797.999272,0.512901,-6.292279,-0.21816398.029241,0.062097,-6.507755,1.87449998.069219,1.09461,-3.767953,1.30213898.099218,2.685743,-0.273532,1.14130498.129186,3.997883,1.674598,0.51998298.169164,4.896619,0.370534,-1.0901998.199163,2.319762,-1.887204,-1.11021498.229161,-0.674505,-3.336659,0.10657398.269139,-0.371358,0.970053,1.48921398.299108,-0.693497,3.560574,1.9644298.329106,-1.199661,4.801912,3.49608498.369084,-2.165463,2.838591,5.08520998.399083,-3.707366,-0.155282,5.0510998.429051,-5.539551,-2.315829,3.90513498.46903,-5.607269,-0.505955,1.09620998.499028,-3.347545,2.556516,-1.86725798.528997,-1.737768,4.485461,-3.62502998.568975,0.508087,1.890884,-3.90286698.598973,-0.287844,-4.254567,-4.90741498.628972,0.171702,-6.463318,-4.67689998.668921,2.671712,-4.939731,-2.21360198.698889,0.056389,-6.576849,1.42811198.738867,-0.559269,-5.878974,2.49837898.768866,2.325522,-1.840103,1.77156198.798865,3.488219,0.030938,1.39164698.828833,4.205091,0.063768,0.84448998.868811,3.517439,-1.217913,-0.36345498.89881,1.16491,-2.173411,-0.00832898.928778,-1.191155,-1.978951,0.74888398.968756,-1.528601,0.247892,0.62955798.998755,-2.569452,2.527718,0.96920499.038733,-2.221033,5.863073,4.0346199.068732,-3.537215,3.694628,3.50879399.0987,-4.921577,0.708706,3.49614199.138678,-6.393411,-0.389161,1.69276599.168677,-4.018041,0.745198,-1.95025599.198676,-1.318973,2.779754,-4.53406299.238654,0.450832,3.392704,-4.22827399.268622,0.648904,-2.957414,-4.51910899.298621,1.371838,-5.652885,-3.09920199.338599,2.225798,-4.862487,-2.700999.368598,1.266716,-5.354668,0.33278199.398566,-0.463674,-5.079398,2.11632899.438544,-0.179133,-2.867059,2.43313499.468543,2.15428,0.577765,1.8920299.498511,4.81947,2.315026,0.89143999.53852,5.585896,-0.206269,-0.34515599.568488,2.899865,-3.119067,-0.00873599.598487,-0.919733,-4.230665,0.72369399.638465,-0.25409,2.721401,0.98265599.668404,-0.230993,4.378882,2.00373499.698403,-2.916691,2.291034,3.41452199.738381,-3.590107,1.105287,5.06127499.768379,-4.600297,0.357843,4.4004699.798348,-6.172206,-1.092298,3.03121299.838326,-6.52152,-0.063781,0.04515999.868325,-4.887333,3.101027,-2.30653499.898293,-1.469813,6.930672,-2.93547199.938301,0.739918,3.630566,-3.58543299.96827,-1.398304,-4.963061,-4.35088699.998268,-0.805926,-8.533587,-3.196776100.038246,4.933418,-4.79362,-5.230991100.078224,-0.181412,-5.495445,0.818665100.098213,-0.822532,-5.673589,2.039563100.138191,1.610378,-2.602481,1.616961100.16819,3.401978,0.011678,1.52667100.198159,4.93859,0.183688,1.200062100.238137,4.900829,-2.255148,0.722516100.268135,2.36183,-2.294007,0.586479100.298134,0.345822,-0.413641,0.23478100.338112,-0.343253,3.273462,1.450489100.36808,-2.807827,2.830908,2.786939100.398079,-2.770183,3.290368,3.6217100.438057,-2.483809,3.004565,3.807853100.468056,-4.126012,0.376933,4.120353100.498024,-6.745982,-2.486156,3.029888100.538002,-5.796552,0.472295,-1.080748100.568001,-3.452009,3.698128,-4.580311100.597969,-0.594328,5.696513,-4.418035100.637978,0.313839,0.96129,-4.982844100.66792,-0.955055,-5.102138,-5.720848100.697919,0.821857,-6.013198,-4.391601100.737897,1.843025,-4.62596,-2.139888100.777875,-0.301835,-6.372725,1.48297100.797864,-0.350265,-5.471606,2.398104100.837842,1.115781,-2.476796,2.0977100.867841,2.814383,-0.0292,1.593166100.897809,4.635655,0.116553,0.673173100.937787,3.596888,-2.519664,0.359453100.967786,0.474909,-3.898959,0.956683100.997785,-1.955713,-1.786401,0.925548101.037763,-0.238286,4.468228,0.558826101.067731,-1.632962,4.972102,1.630529101.09773,-2.623472,2.905467,4.372574101.137708,-4.069213,1.220622,4.916933101.167707,-5.557826,-0.634537,4.500661101.197675,-6.682876,-1.233619,2.626563101.237653,-5.67012,1.265614,-0.758848101.267652,-3.513163,3.20409,-4.134672101.29762,-0.568149,5.438973,-4.349053101.337628,0.501275,0.84675,-5.170761101.367597,-0.777597,-4.58788,-4.413668101.397595,1.993422,-4.335175,-4.34665101.437573,2.016575,-4.794434,-1.315049101.467542,0.266367,-6.331277,1.52431101.49754,-0.267792,-5.950893,2.707369101.537519,1.508485,-2.529013,2.458584101.567517,3.693734,-0.107897,1.500347101.597486,5.267046,-0.138942,0.348382101.637464,2.620035,-3.489138,-0.145217101.667415,-1.817352,-4.986744,-0.092348101.697414,-2.712021,-1.308205,-0.490384101.737392,-0.939806,4.979726,0.198351101.76736,-2.777418,4.377412,0.002908101.797359,-1.49845,5.080092,2.790586101.837337,-2.843275,3.789298,4.131444101.867336,-4.477636,0.714872,4.567777101.897304,-5.746741,-1.162618,3.658718101.937282,-4.553032,-0.646096,0.533542101.967281,-2.493037,1.389795,-3.059008101.99728,-0.611752,3.468544,-4.408735102.037258,1.804021,0.923281,-5.162554102.067226,0.567136,-3.571532,-5.209533102.097225,1.530576,-4.380419,-4.657349102.137203,0.724918,-5.364895,-0.315879102.167202,-0.61329,-5.987914,1.734619102.19717,0.211447,-4.557028,2.151345102.237148,2.336699,-1.575194,1.718316102.267147,3.821196,-0.509392,1.390644102.297115,4.714311,-1.037974,0.508574102.337124,2.712513,-2.766419,0.077132102.367092,-0.217374,-2.498369,0.55537102.397091,-1.1136,0.837891,0.538575102.437069,-1.124904,4.709243,0.740072102.467037,-2.066397,4.09991,1.949861102.497036,-2.346197,2.876509,3.645914102.537014,-2.735486,2.88253,3.906162102.567013,-4.348468,0.446802,4.053862102.596981,-6.194696,-1.565873,3.09248102.636989,-5.586447,-0.598817,-0.341091102.666942,-2.681119,2.032535,-4.06225102.69694,0.737579,4.928499,-4.373804102.736918,2.089722,0.501461,-5.143914102.766887,0.352331,-5.418591,-4.762518102.796885,1.791259,-6.343502,-4.692106102.836863,0.792944,-5.533309,0.188476102.866862,-2.022357,-5.207142,3.025132102.896831,-0.501661,-2.969434,2.573289102.936809,1.971102,0.292248,1.702103102.966807,3.068141,0.750228,1.318192102.996806,4.046305,0.195775,0.447578103.036784,2.684812,-2.168201,0.211477103.066752,0.03238,-3.001105,0.78175103.096751,-1.306218,-1.408945,1.156993103.136729,-1.101845,2.227993,0.596375103.166728,-2.341898,4.039948,0.680358103.196696,-1.998365,5.717011,3.739103.236674,-4.836888,2.11401,4.627567103.266673,-6.917124,-0.727979,3.762221103.296672,-7.060263,-0.949104,2.070787103.33665,-3.742064,0.550534,-2.344999103.366618,-0.854036,1.976416,-5.1045103.396617,1.742868,4.651888,-4.307973103.436595,2.398312,0.682913,-4.768312103.466594,0.842286,-4.817294,-3.934525103.496562,2.058531,-5.666936,-3.678907103.53654,1.315758,-5.316312,0.617025103.566539,-0.339211,-5.312824,2.663523103.596538,0.244036,-4.018546,2.556739103.636516,1.596816,-0.826346,2.228819103.666428,2.829025,0.974504,1.936511103.696427,4.781563,0.898081,0.76145103.736405,3.587279,-2.002305,-0.176637103.766403,-0.207481,-3.245359,0.243035103.796372,-0.706982,0.172459,1.203706103.83635,-0.874237,3.33789,0.363874103.866348,-2.681452,2.820254,1.492441103.896347,-2.923662,1.807173,4.276855103.936325,-4.008595,1.365284,3.285633103.966294,-4.608153,0.921064,2.93921103.996292,-5.70061,0.232597,2.054409104.03627,-3.98155,0.704668,-1.458417104.066269,-2.88992,1.541727,-4.453157104.096237,-0.622896,3.393468,-4.29931104.136215,1.865023,0.664174,-4.701215104.166214,0.673774,-3.743933,-4.373627104.196213,2.674321,-4.756085,-4.227807104.236191,2.162488,-5.718856,-0.698802104.266159,-0.721857,-6.644736,2.173206104.296158,0.119923,-4.246567,2.418331104.336136,1.830803,0.059059,1.81876104.366135,3.320861,1.960959,1.268265104.396103,5.084432,1.398538,0.077621104.436081,2.400954,-2.405297,-0.66945104.46608,-0.513818,-3.130829,1.023617104.496079,-0.371686,0.170461,2.252538104.536057,-1.590097,2.442951,2.452423104.566025,-2.585171,1.676301,3.680753104.596024,-3.845888,-0.520274,4.756986104.636002,-2.471146,1.422574,2.556676104.665974,-3.811774,0.563162,2.262268104.695942,-5.313967,-0.25837,1.244199104.73592,-4.896308,0.868539,-1.875909104.765919,-2.556709,2.936405,-5.201447104.795917,0.044678,4.843177,-4.577327104.835895,0.821531,0.318608,-5.314718104.865864,-0.24571,-4.431821,-4.73352104.895863,1.834656,-4.906283,-4.548432104.935841,0.825266,-5.328495,0.290232104.965839,-0.340543,-5.761069,1.987412104.995808,0.617121,-3.684791,1.816167105.035786,2.063583,-0.674227,1.448553105.065784,3.053364,0.623887,1.39282105.095783,4.217031,0.501303,0.811282105.135761,2.473182,-2.073198,-0.409933105.165729,-0.328203,-2.56654,-0.726717105.195728,-0.709745,0.304463,-0.224479105.235706,