time_tick,acc_X_value,acc_Y_value,acc_Z_value0.029607,0.857454,-3.921543,-8.6159920.062601,0.566698,-4.263477,-8.5724460.09627,0.61174,-4.47597,-8.4153210.129616,0.692398,-4.534181,-8.2727110.163075,0.711552,-4.608255,-8.2659770.196378,1.125914,-4.507994,-8.1103480.22919,1.460066,-4.501858,-7.7916090.262476,1.614647,-4.313907,-7.2915020.296566,1.58008,-4.301337,-7.7088560.329701,1.667172,-4.592392,-7.7848750.363228,2.117298,-4.55139,-8.8075350.396406,2.063576,-4.571293,-9.5083130.429688,1.845098,-4.32498,-10.0187450.462839,0.726367,-3.73,-10.3885130.496041,0.048335,-3.876351,-9.6061790.529595,-0.443542,-4.15349,-8.0284940.562943,-0.474069,-4.430628,-6.7801720.596494,-0.080059,-2.952156,-4.9887970.629579,0.729509,-2.881375,-4.2657220.662915,1.402154,-1.993543,-4.7209360.696254,2.5146,-1.854076,-5.0905540.729599,3.46199,-3.665654,-6.0464730.762799,2.865214,-7.181365,-11.537920.796275,3.716832,-7.11238,-12.0728940.829618,4.306724,-7.609493,-15.4433020.862833,8.366238,-10.730297,-11.6440170.896269,2.071058,-4.983709,-12.9656630.929593,0.602612,-6.389604,-8.248020.962983,3.413805,-5.488305,-6.4989930.996278,-0.55308,0.371264,-3.7961421.029633,-6.686346,6.674824,-3.6048991.062842,-6.947772,4.862648,-1.1932531.09641,-13.454248,2.023771,-6.5684281.129937,-22.030734,-9.427506,-16.2669371.162686,-17.984389,-8.733013,-14.9841971.196314,-5.941573,-8.037472,-9.8182231.229764,-0.964598,-7.205158,-6.6662941.26286,2.118794,-11.21948,-5.6656321.296365,8.764438,-15.4023,-9.1594951.329682,3.064089,-11.833166,-10.1893381.362625,1.736606,-12.981675,-9.7592641.396273,-8.025202,-16.453092,-13.7583221.429806,-16.129714,-15.792868,-19.5249631.46283,-21.817343,-14.335495,-15.9074941.4963,-17.595616,-5.760505,-9.1234311.529701,-9.471201,3.207297,-5.7108241.562889,-5.739256,5.988112,-3.9935211.595707,-3.655927,3.636773,-2.0264651.629901,-5.176898,3.400337,-0.5221041.663314,-4.661228,1.926354,0.9916841.696364,-5.304543,-0.124802,1.5067551.730385,-8.191904,-3.854054,0.8861861.762661,-10.463933,-5.902666,0.4172051.796482,-14.328911,-11.801591,-5.712471.829632,-21.730999,-23.874036,-11.2582371.862977,-12.856424,-13.51186,-5.2550111.896277,-4.775256,-11.911878,-2.2795111.929688,-0.021698,-5.67042,1.3713281.962991,9.5345,-3.245157,0.8055281.996442,11.116526,-6.827609,-0.7907132.029095,10.134718,-14.50938,-4.3719682.063087,4.158129,-21.120456,-9.4296012.096354,-15.00814,-34.380317,-16.8346822.129646,-23.874036,-34.094948,-17.258772.162919,-23.14318,-21.007326,-12.9679082.196381,-13.444521,2.616956,-7.1195622.229615,-5.19261,12.378913,-4.8645932.2627,0.619073,20.169026,-1.3403522.29635,1.063812,16.169669,0.0187052.328937,-5.992003,12.218646,1.0569282.362933,-11.608252,6.859932,1.9274012.396693,-19.602627,-1.988007,0.0698832.430102,-30.683987,-17.779527,-6.6957742.464305,-30.282196,-23.613358,-12.2871822.496338,-21.375447,-17.08279,-11.3191422.529632,-5.885906,-11.256292,-6.6568662.562854,-0.429176,-7.017656,-5.0576322.596465,6.477894,-6.083584,-4.2387862.630035,10.437296,-8.910639,-3.5531222.662739,9.776623,-14.864184,-6.6436982.696405,9.103229,-17.762917,-8.532792.729683,2.264846,-15.832224,-14.5864462.765637,-10.657122,-21.139311,-27.6845442.796192,-27.648779,-22.534731,-33.5126882.829921,-27.808747,-8.537579,-21.2386742.862697,-11.871474,9.002669,-6.74772.896505,-2.411346,18.476714,-1.3813542.929618,4.248214,20.983383,2.6183032.962567,0.73759,17.84552,4.1980832.996259,-8.18936,11.411173,4.8255363.029631,-14.523297,6.600301,3.0055793.063184,-27.083428,-8.17694,-3.0711223.098484,-37.450542,-19.614449,-12.028153.129962,-28.206349,-19.195299,-15.1209713.163316,-13.546577,-12.580483,-11.5431583.19626,0.635234,-8.302939,-3.9267813.229583,5.121979,-4.847085,-0.5433543.26198,8.224825,-4.343536,0.9147673.296103,8.080569,-12.092198,0.3208343.329713,5.837422,-16.757167,-3.2614683.363096,2.384111,-20.910357,-6.3720963.396248,-4.419106,-20.953005,-11.3528123.429934,-25.450674,-36.071881,-18.3159973.46288,-38.338972,-28.358984,-12.6327083.496693,-28.53257,-7.530482,-6.3520443.529717,-10.650238,12.20443,-3.7129413.56374,-1.728376,20.755926,0.0227463.596755,1.829834,20.407258,1.6270683.629887,-4.347577,16.312129,2.6789083.663548,-8.506004,12.849391,3.5383073.69723,-11.847681,8.312366,3.105693.73391,-33.221033,-10.773095,-1.2168963.764793,-47.52645,-26.285981,-5.2478293.79726,-34.476837,-26.05987,-6.4313553.830825,-10.168687,-17.30501,-4.9180153.863511,1.864401,-9.341012,-2.4174823.896886,7.495466,-6.285153,-0.138273.929377,10.144445,-6.241907,1.8661973.962962,9.066268,-11.483001,1.5021163.996284,7.538263,-18.689357,-1.7219414.029613,2.206186,-17.445225,-6.9643834.063199,-7.977465,-20.271831,-11.8864394.096373,-28.094715,-38.87619,-18.1102384.129847,-32.699827,-26.922412,-12.275664.163005,-24.202352,-7.634783,-3.5160114.196255,-11.596431,8.969299,-1.4657534.229834,-3.611034,18.798297,-1.0989784.263046,-0.108192,19.214753,-0.5022024.296286,-3.687202,17.178861,1.9332374.329606,-7.681621,11.442149,4.9214574.36293,-15.021608,4.160373,4.899464.396289,-29.916468,-13.636513,3.9184014.429629,-35.714983,-31.765307,1.1351914.462999,-21.744168,-24.639759,0.2518494.496284,-3.862434,-15.746927,-0.0296294.529696,3.731497,-6.732885,1.1422254.562946,5.400165,-3.837743,0.5505364.59644,6.726899,-6.656418,-1.1333964.629632,8.043159,-14.223562,-0.6727954.663183,7.483344,-20.987723,-4.9145744.696297,-2.280708,-25.189697,-7.3949064.730506,-12.150109,-26.562371,-9.8294474.762515,-25.784827,-32.133279,-9.9187834.796742,-28.271593,-17.903881,-4.4396074.829611,-17.94174,-0.428428,-3.2933424.862947,-6.838234,13.536402,-2.6307234.896308,-2.148573,16.412689,-1.5377314.92963,-2.5565,15.510342,0.6434654.963644,-4.68966,12.933341,3.5607544.9956,-6.735878,8.085208,4.7733115.029697,-13.062782,3.506583,4.3689755.062823,-29.288118,-13.513057,1.2851345.096284,-43.086245,-30.282944,-2.4492065.129627,-21.136617,-21.419442,-3.1800625.162939,-5.240346,-13.67138,-2.7315825.195351,2.424814,-8.185918,-0.7498615.229764,7.997667,-5.886954,0.8607465.262658,8.75082,-7.314398,0.9954255.295606,8.700989,-11.47926,-0.2651675.330001,4.493927,-17.217618,-6.3861625.36285,-4.46759,-18.173088,-9.962035.396363,-11.706268,-29.268664,-16.2616995.429996,-32.563502,-26.117184,-14.9123695.46267,-25.689803,-10.82113,-6.1150095.496273,-15.613595,-0.250502,-3.5902345.529663,-7.303773,8.785687,-1.8955275.562921,-2.749091,13.299667,0.9328745.596345,-3.697079,13.728094,3.7478085.629616,-3.04254,10.885327,6.0316585.662633,-6.029264,6.638011,5.9243645.695394,-13.748745,0.970584,3.7388295.729618,-27.125927,-15.067249,-2.946475.76379,-35.533765,-26.555637,-6.9800955.796268,-17.278523,-17.211184,-6.4873215.829608,-3.838192,-11.25719,-4.6532975.8638,1.720744,-7.450124,-0.3009325.896349,8.315509,-5.415129,2.5174435.929652,8.314761,-8.144317,1.6754025.962716,8.576486,-14.580161,-0.8230365.996037,3.355444,-23.209172,-10.4869786.029881,-7.48948,-23.802357,-17.5255836.062327,-18.258684,-25.622614,-21.5349676.096556,-23.914439,-19.248123,-15.7855356.12891,-21.372006,-5.664883,-9.4370836.162973,-11.255694,4.291161,-5.9622246.196275,-3.662361,13.675869,-1.8186116.229644,-0.064197,15.378506,1.7132626.262089,-3.376693,13.116204,2.8951426.296445,-5.983773,10.197419,3.6271956.329565,-11.323781,4.050984,1.580236.366418,-22.671954,-5.634656,-4.6523996.395914,-31.567479,-14.084095,-10.4325086.430007,-28.533468,-17.038196,-14.0224426.462651,-14.476459,-11.226962,-10.4754556.496404,-2.374235,-8.840905,-5.6506676.529029,3.095215,-7.785773,-1.035236.563344,8.866494,-8.969898,1.496136.596315,9.083626,-13.23547,-0.8231866.629774,8.409185,-15.148505,-5.9355876.662717,-1.176044,-15.541767,-15.0222066.695759,-13.237415,-21.506535,-20.2965226.730082,-27.161392,-26.67191,-23.3912886.762751,-31.280464,-17.735981,-17.2014576.79627,-16.89813,0.337295,-7.1216576.829966,-8.542068,11.116077,-2.2781646.862863,-3.170635,17.021736,3.0329636.896729,-2.076595,15.422651,7.7482126.929374,-4.418208,13.72166,6.2576196.963031,-6.400229,10.955959,4.606016.996442,-12.430091,8.46605,3.1939797.029393,-22.90405,-2.203043,-1.0238577.063554,-48.109908,-21.985841,-9.0375367.095978,-40.426641,-26.11464,-7.4483287.12941,-9.674417,-16.506216,-4.3411427.162933,-0.40658,-10.198466,-1.6450257.195701,8.090745,-8.53294,1.0825177.229632,11.178927,-8.888043,1.8955277.262643,10.392553,-12.495336,-0.0324737.296343,7.342082,-17.637666,-3.5993627.328923,-2.00327,-20.475794,-8.7666827.362945,-17.467672,-29.845089,-12.8529827.396613,-32.577718,-32.952424,-13.0850797.429623,-35.081544,-19.84475,-8.1254627.462772,-18.929683,1.047052,-4.3685277.496336,-9.233568,13.134012,-1.8730817.529619,-3.760527,17.893855,1.6077647.563031,-3.498652,16.962926,3.6750817.596293,-4.463251,13.829253,4.4295817.629662,-5.833381,9.853689,3.851667.663064,-12.66129,5.990955,2.2028947.696371,-30.643583,-11.209005,-2.3675017.729923,-47.919862,-27.070559,-5.5171867.762788,-30.598242,-25.757442,-5.238857.796313,-5.126618,-14.834255,-3.7086017.829766,2.925071,-8.863651,-1.4715897.862831,9.339815,-6.326754,0.3914667.896363,13.724054,-9.273972,0.6144347.929686,10.612977,-13.672726,-1.0370267.962076,5.820961,-15.974983,-4.5256527.996945,-4.796206,-19.828139,-8.432388.029611,-24.732687,-34.829695,-10.9689788.063022,-36.613589,-30.845901,-6.4304578.096262,-32.194632,-14.708705,-1.6516098.129605,-14.277434,4.992388,-1.9559838.162935,-3.090875,16.981931,-0.2674128.19564,2.375133,20.578599,2.4586348.229698,-1.538629,16.683094,4.4671418.263016,-6.112914,13.012801,5.7356658.296293,-9.638951,9.052201,5.1333528.329894,-17.919294,0.935268,3.8510618.367279,-45.459732,-20.530114,0.1705938.395819,-40.631053,-26.523015,-4.9600658.430231,-18.725271,-18.003393,-7.6997288.464198,-1.241737,-11.447087,-3.3505068.498184,5.774721,-7.432915,0.2629238.530665,11.490633,-7.173284,2.6370088.563014,10.841332,-11.725273,2.5623368.598029,10.378487,-16.891247,-0.7467188.63172,4.210055,-16.942724,-5.2642898.666578,-10.166742,-23.957686,-12.7477838.696846,-30.811483,-40.345235,-19.6410868.730945,-35.658268,-24.850606,-12.2005398.763074,-27.002471,-8.478171,-5.0435668.797149,-14.083347,9.302703,-1.8673948.830951,-4.766876,18.11353,2.0406818.862894,-0.768117,18.305971,3.8965538.898302,-4.019709,15.228414,4.3565558.930637,-6.129824,11.386481,4.5255028.963338,-10.13397,8.053783,3.5273849.005812,-28.362127,-6.301165,-1.7533669.029005,-46.132676,-25.049032,-9.056699.062727,-35.15038,-24.777729,-9.4478579.09719,-11.861897,-18.494671,-7.4417449.131227,-1.067702,-11.015517,-3.1362179.164303,7.034865,-6.808006,0.8499729.196991,11.910531,-6.504081,3.2955879.230173,9.689381,-10.843128,1.8473429.263732,8.390929,-15.271811,-1.7253839.296615,1.660288,-17.77833,-7.5472429.329756,-9.053698,-23.274416,-14.0598539.363789,-31.535455,-36.120366,-20.0696639.397496,-32.292649,-24.266549,-13.5296689.43009,-23.142132,-5.33522,-7.5221029.462881,-8.835069,11.519065,-3.1644999.497017,-0.790713,19.965063,1.160939.530275,0.099213,19.410037,2.2031939.564352,-5.831137,15.125759,2.7308349.59738,-9.996298,11.168601,2.4819789.631037,-15.804839,5.639294,0.4981619.662433,-30.651664,-10.107334,-5.402419.698983,-43.57438,-26.993942,-13.6980169.731865,-23.294319,-19.778757,-13.7653559.763905,-7.390117,-13.012352,-8.6854269.798759,0.555774,-8.546857,-1.7069779.832369,6.241458,-5.003761,2.4155369.862884,11.31151,-6.18175,4.1207189.898959,11.119967,-11.791864,2.171179.931805,8.127707,-13.557501,-0.766929.965096,1.376565,-16.333228,-6.7664059.998414,-12.886353,-29.392269,-13.93849210.03237,-30.145123,-39.428821,-13.3946910.0626,-31.10194,-24.689291,-5.84550210.095858,-20.165285,-5.629717,-3.7970410.130681,-6.764011,13.164689,-3.43310810.164846,0.610094,18.635635,-0.23613710.197045,-0.249455,17.481439,1.05258810.230824,-4.880305,13.088071,2.66244710.262818,-8.759051,9.259157,3.46558110.295766,-14.770956,4.004894,2.9967510.330127,-30.547064,-14.573577,0.18091810.362811,-43.113929,-29.131292,-6.32046910.396334,-21.380086,-19.524065,-9.26529310.429805,-5.874832,-13.127577,-5.82290610.462952,1.912736,-8.617189,1.23290810.495352,7.284619,-5.52392,3.28930210.52976,10.626894,-8.889839,1.01802110.562885,8.592498,-13.437637,-4.4340710.596873,6.189831,-15.547304,-12.47004610.631099,-2.247487,-18.024493,-15.12411310.663699,-13.988922,-26.274009,-15.61643910.696291,-30.747136,-29.132339,-13.35054510.729893,-27.562136,-13.482979,-7.50175110.76298,-15.948347,0.502202,-4.45172810.796792,-4.771515,14.729954,-0.87885310.833277,-1.050045,19.492191,1.95867710.862566,-3.047628,17.466175,3.60115810.896299,-7.570886,12.95878,4.91502310.929857,-11.37885,7.573729,4.65165110.963129,-18.775401,-2.205288,1.9194710.996446,-35.289249,-19.642432,-4.33560511.029651,-36.459008,-28.962494,-10.0919211.063092,-15.521415,-18.881648,-7.92060111.096481,-3.562101,-11.929536,-3.07516311.12967,3.719525,-5.124822,2.69372311.162665,8.091942,-3.441937,3.91241511.196553,8.039867,-3.833403,2.9003811.229703,9.091707,-7.981506,0.35659911.262324,9.071056,-12.161482,-6.07894511.296484,1.456774,-14.113425,-9.0692611.329516,-9.727689,-23.558888,-10.82457211.362674,-28.537359,-32.609892,-13.53146311.396866,-32.395603,-22.107052,-8.05737511.429679,-20.830448,-6.698767,-3.54204911.463483,-12.186622,5.352728,-2.38710411.496486,-4.515775,15.825639,0.50205211.529648,-1.875176,17.560899,3.33928211.562953,-2.480631,15.467245,5.60412811.596746,-7.108489,10.023982,5.51179911.632549,-13.724952,3.18919,4.08959211.664202,-28.56624,-13.250584,1.65909111.69766,-34.512602,-28.023635,-0.73624311.730601,-21.341778,-22.045997,-2.29746811.764888,-6.577556,-14.158916,-2.7073411.795992,0.512826,-8.339452,-1.19669511.831641,7.060304,-4.717644,1.71475911.863052,9.273972,-6.864272,2.40730611.898435,8.790775,-15.416665,-0.72891111.933525,6.401276,-19.243335,-6.1693311.967705,-0.588097,-19.164174,-11.27290211.997842,-9.621443,-24.220609,-13.22783812.031242,-26.627915,-29.70607,-10.24934512.062745,-27.347249,-17.113766,-5.07154912.097083,-17.812449,-2.816131,-3.64096312.131099,-7.084995,15.687519,-0.69045312.16868,-3.011415,20.526373,2.65676112.197673,-2.645837,18.085398,4.16860412.232096,-8.015624,12.418719,4.96814612.262692,-12.826944,8.656695,4.15109512.298615,-22.317599,-0.472722,2.24898412.331218,-37.513541,-17.699169,-3.13217712.362588,-41.684689,-23.707034,-5.70962712.39749,-13.96034,-15.079969,-5.45463512.431553,-2.774081,-11.478213,-2.01928212.462913,1.501817,-10.97631,2.02945812.497435,6.956003,-12.311574,3.0344612.528996,5.277308,-15.726576,0.71050512.562953,6.835241,-18.133732,-2.56981812.596482,2.189576,-16.43738,-6.67602112.628686,-5.575547,-16.334425,-7.52180312.663054,-12.684185,-27.56468,-10.80212612.696631,-32.935664,-26.006448,-10.91375912.72967,-28.764517,-9.186281,-5.37203212.763008,-17.335686,4.487642,-4.73485212.796319,-7.967589,14.458053,-2.26843712.829805,-3.341976,17.924531,1.04226312.863114,-3.069326,15.929791,3.0678312.896404,-4.763883,12.859866,4.819712.9297,-10.355741,7.903841,4.97862112.963954,-23.312126,-4.093483,4.06011212.99675,-41.108863,-23.403558,1.70458313.030179,-32.41775,-21.895157,0.28387313.06253,-10.177366,-13.808752,-1.62871413.095403,-1.470691,-9.581339,0.51851313.129857,4.518469,-8.645771,2.64284413.162802,9.089612,-10.232285,2.52866713.196356,6.44587,-13.437338,0.98824213.228861,6.237866,-18.314052,-2.22204813.2628,-3.297233,-20.727643,-7.82168713.29645,-14.874958,-22.972587,-10.18754213.329737,-26.098777,-29.026841,-9.44501413.363583,-31.292435,-19.574794,-5.59679613.39608,-15.48595,0.121211,-3.65413113.429919,-6.990421,12.601433,-2.66783413.463591,-0.129292,20.123086,0.6078513.496102,0.791162,17.35948,2.28370113.529654,-5.404804,13.174116,3.00692513.563045,-10.886075,8.617937,2.83633213.596732,-24.521541,-4.665568,1.06815113.629824,-41.030151,-19.888745,-0.65872813.662818,-41.410244,-21.737733,-1.67031513.696344,-16.327243,-11.820296,-3.8305613.729297,-1.210611,-9.54288,-0.55801913.763107,3.233634,-9.475391,2.22893213.795487,7.311255,-12.252615,1.85287913.829169,3.414104,-18.258235,-1.39422313.863053,2.290435,-19.534241,-5.27326813.896306,0.076019,-17.859287,-7.68730813.929255,-11.842892,-20.341564,-9.25421913.962558,-31.132916,-30.916233,-12.09803413.99623,-41.634559,-17.788656,-6.49884414.029704,-25.409672,-0.111334,-4.97832214.062979,-8.967204,12.374574,-2.89274814.096316,-1.443606,18.865636,0.6244614.129637,2.715271,18.045144,2.65167314.162653,-1.456624,13.037791,4.76463114.196429,-7.574627,9.53884,5.19096414.22966,-17.072913,1.689469,4.01836214.263763,-39.334846,-13.75518,2.66050214.296319,-36.922452,-20.406509,0.61233914.328745,-22.140721,-13.165437,-1.03567914.362672,-5.784897,-8.720592,-0.49591714.396337,3.478899,-7.41391,1.18038414.429336,6.321517,-7.299882,1.28109314.462809,4.655542,-10.439092,-0.04758614.496331,3.760378,-19.089801,-5.0250114.529032,-0.687909,-19.292867,-8.48535414.562975,-7.63598,-17.863327,-9.2160614.596391,-22.330918,-27.461276,-9.3797714.629595,-35.979552,-21.0808,-1.21689614.663092,-29.818003,-6.665546,2.53495214.696339,-17.143246,1.828786,-0.53497414.729616,-4.576231,14.17852,-1.83088114.762412,0.492475,19.689271,0.83291314.796552,3.019046,18.384983,3.50059714.829652,-3.191884,14.277284,6.15167214.863132,-11.188055,8.883853,7.17747414.89652,-27.406507,-3.490721,8.02879314.929025,-42.192427,-15.683179,9.42002314.963045,-25.973377,-11.993134,6.1609514.99647,-8.373271,-11.046642,1.67884415.029867,-1.956881,-8.297103,2.93285215.063504,5.16762,-8.197441,2.29088415.096298,4.581319,-10.176319,0.51626815.129443,3.380135,-15.542365,-2.19750715.163345,1.817713,-17.095809,-6.86457115.196189,-7.364528,-15.84629,-10.17362515.230595,-19.814672,-21.917753,-10.14010515.262551,-39.428073,-23.061325,-6.88222915.296465,-33.81781,-5.728332,-2.04636715.330049,-19.031889,2.352686,-3.67313615.362613,-8.870684,10.076657,-2.52926515.396404,-3.088181,15.0038,1.03193815.429102,-1.451537,14.776642,3.61567315.462732,-0.66217,13.168729,5.25920115.496299,-4.179228,9.500681,6.16977915.529661,-12.022464,2.28011,7.2546915.563088,-28.583748,-15.115434,6.55376215.596271,-39.858895,-25.155279,11.94494915.629683,-15.12142,-16.045914,2.4851215.663031,-3.354696,-10.368161,0.47511615.696058,1.820257,-6.647738,0.41645615.72963,6.723607,-3.593526,-0.23538815.762897,9.578346,-5.606523,-1.22228415.796318,7.89576,-12.969405,-3.48039615.830059,4.581618,-20.224244,-6.28949315.862664,-3.97721,-21.370659,-8.42235415.896288,-13.10139,-33.02111,-8.96361315.929095,-25.019852,-34.229328,-5.60891715.963391,-26.201881,-15.912582,-0.31604615.9963,-16.060878,-1.722839,-1.88101216.028742,-7.981356,12.648121,-1.7265816.062665,-3.792401,19.025455,1.79586516.107676,-5.890096,17.055106,6.06472916.129591,-6.501387,13.703254,7.36707216.162862,-8.735856,9.089462,6.80830516.19708,-20.302358,-2.156953,5.10985816.229976,-38.182745,-22.527848,2.99166216.262619,-42.487972,-33.924355,1.49089316.296351,-11.595982,-19.416172,-2.37393616.329623,-1.011137,-11.911728,-2.25122816.362927,5.001367,-6.923231,-0.32921416.397753,11.136877,-4.576231,1.80334716.428762,10.182754,-7.332804,1.13040316.462264,9.581189,-13.582941,-1.15748816.496786,8.853176,-18.902897,-5.66308816.529723,-3.849714,-21.900694,-12.93049716.562496,-15.172298,-31.091315,-17.22330516.596319,-29.458411,-32.866829,-17.80227316.62958,-29.980216,-11.853667,-9.89289516.662919,-18.02135,2.85848,-5.81572316.696253,-9.996298,17.319525,-0.36318316.729597,-3.256979,21.156969,4.79934916.762845,-4.760441,17.368907,5.60128516.796365,-7.061202,12.09115,4.97787316.829713,-11.488089,8.984563,3.48982316.862689,-22.1289,-3.733891,0.61533216.896209,-42.347458,-22.831773,-4.42269716.929664,-43.075022,-30.205578,-5.53409516.962885,-11.886139,-14.876754,-6.20883616.99629,-2.500983,-10.654129,-4.2788917.029608,1.893881,-8.144018,-0.68551417.062617,6.120097,-6.757875,3.00827217.095923,6.380925,-11.350418,2.50696817.129667,7.690151,-15.654897,-1.08790417.166444,5.014386,-20.162442,-8.60611617.196496,-6.816685,-21.590634,-16.34654717.229214,-18.153336,-26.97793,-22.35665617.263024,-27.451849,-23.631016,-21.6636617.296285,-26.514785,-7.294645,-11.44005417.329697,-17.622552,3.684209,-6.55645617.362949,-8.350376,14.86164,-2.89050317.396297,-0.783979,18.18491,0.92763717.429644,-1.737205,14.97043,1.98351717.463029,-4.380947,11.120117,2.5439317.496284,-7.551432,7.528986,2.61411317.529637,-17.535011,-0.485591,0.83919817.563368,-39.653884,-19.993794,-5.36110817.596778,-49.002229,-27.586079,-2.88466717.629631,-14.8154,-14.585997,-1.529817.662898,-3.174825,-9.310784,-0.89217117.696046,2.691628,-5.646627,0.57208517.728943,7.521055,-4.298793,1.17170417.763033,6.224099,-8.712961,-1.98037517.797563,5.200541,-16.188374,-6.77014617.829695,7.026933,-19.085312,-11.52714617.86309,-2.238509,-17.873354,-15.41980817.896411,-18.239679,-29.004544,-18.13822217.929656,-38.143538,-30.099332,-15.90958917.962945,-29.637384,-7.672044,-6.40441917.996293,-16.073747,3.332249,-4.13029518.02961,-7.947836,12.924063,-1.32344218.063075,-3.041792,16.217255,1.02370718.096311,-4.258689,14.813455,3.13442118.130221,-6.085829,12.45568,5.44700318.162627,-6.971715,8.87233,5.95593918.196634,-10.646497,7.008527,5.08471818.234482,-21.894409,-3.048077,1.99279518.274719,-57.834904,-26.580478,-3.97167318.296267,-29.711607,-22.511237,-8.5245618.329611,-6.350398,-14.665607,-7.67608518.362588,0.554876,-10.812601,-4.06160918.396306,7.64855,-8.270017,-0.26022918.429595,11.191048,-10.015602,3.61178218.463053,9.587923,-13.29817,3.16150718.496287,8.21046,-14.624007,0.5240518.529634,1.955085,-12.290624,-5.36679518.60373,-41.931899,-38.94757,-11.57533118.629588,-35.568183,-23.063121,-4.46100618.662966,-22.578876,-3.752746,-4.65374618.696274,-11.910232,10.822627,-4.86070218.729599,-5.606523,18.310311,-1.97468818.762951,-1.85243,19.390134,1.91857218.796256,-2.107871,17.173025,4.50170918.829598,-5.072746,13.416538,5.81168318.862967,-10.106735,8.693806,4.97951918.896282,-28.428269,-7.144553,3.25054418.929603,-61.773357,-26.08097,0.28417218.963057,-26.259195,-20.805009,3.17213118.997189,-4.108297,-14.461045,0.93781219.029651,1.724186,-9.282651,1.38374819.062515,6.858585,-6.059193,2.01808519.096324,9.190471,-6.330346,1.06560719.1296,6.228588,-10.045381,-1.10960219.162981,6.34531,-15.169156,-4.8113219.197499,0.318291,-16.266937,-9.67202219.229595,-7.684465,-17.904629,-10.73179419.262636,-31.011106,-33.688967,-13.04751819.296257,-51.724085,-19.35437,-1.69380919.329587,-30.999285,-1.903608,-1.23485419.362923,-15.387335,9.37528,-2.200519.396263,-5.333125,17.393898,-0.72053119.429044,0.450425,21.358987,2.26813819.462586,1.525311,20.570219,5.3940319.496272,-0.260678,16.360613,6.86053119.529639,-7.035313,12.192907,5.40480419.563026,-18.265717,6.212128,3.81080719.596277,-45.784157,-10.451961,0.20560919.629741,-53.451862,-20.646537,1.30069619.66262,-18.461151,-16.011945,-2.16099419.696295,-5.970454,-12.617295,-1.95194319.745641,4.470134,-8.819357,0.73564519.762956,5.974794,-8.102118,0.922119.79628,4.64776,-7.745519,1.59713919.828894,3.919149,-10.953265,0.54290519.862656,1.942216,-14.451618,-3.07965219.896316,-2.995403,-12.706332,-6.47355419.929644,-13.228586,-20.341864,-10.53276819.962911,-37.100976,-33.020811,-13.68170519.996343,-38.145334,-11.799945,-1.21569920.029582,-19.786239,0.642716,-1.53593520.062796,-8.748576,12.714712,-1.79332120.096259,0.551584,20.51949,1.09344120.129592,1.008145,20.151667,3.08548820.162678,-0.100261,16.608122,5.25306620.196272,-6.133266,12.096837,6.04422820.228867,-14.38383,7.314547,5.73416820.263047,-38.993809,-8.337806,5.3727820.296362,-53.563047,-20.688586,5.40719820.3296,-20.141941,-17.15417,1.64756920.3627,-5.652313,-12.291073,0.76422720.396307,1.357112,-8.169607,1.68587720.42962,7.397749,-5.098036,2.37558220.462758,5.66219,-5.928105,2.54886820.496278,3.467526,-11.69744,1.08715620.529608,1.152849,-17.857491,-4.36942420.563041,-4.791418,-16.703146,-9.61635520.596541,-14.781431,-22.725077,-9.91863420.629397,-32.751005,-32.104996,-6.65073120.662891,-35.204102,-11.675891,0.69269720.696299,-19.809883,0.856107,-2.0034220.729726,-7.557118,12.285985,-2.05684220.764061,1.534439,22.244574,2.14872320.796165,1.76429,21.647349,4.19060120.829816,-0.965646,17.369356,5.31965720.862964,-6.107228,13.056197,5.85657620.896288,-20.076696,4.364337,4.98565420.930499,-43.222869,-9.886161,3.40093520.962637,-51.360751,-19.424552,2.84411420.996365,-20.392443,-13.261358,-1.37192721.029615,-6.743061,-9.114752,-0.6204221.062908,-0.35211,-7.266512,1.26448321.096297,3.881588,-5.369488,1.84734221.129103,1.810081,-6.027768,1.64801821.162916,0.572384,-11.015666,0.61892321.196399,3.493564,-17.661908,-2.63506321.22953,0.517465,-16.419273,-8.5790321.263053,-3.509726,-13.438685,-10.14773721.29646,-13.790495,-24.454201,-11.78707621.329291,-43.164658,-23.169068,-8.55089721.362795,-33.748375,-6.699814,-4.21319721.39628,-16.853238,5.421564,-4.15214321.429645,-5.637349,14.87002,-1.0521421.462966,-3.549082,18.029132,2.20169721.495626,-0.878105,17.597861,5.16926621.529594,-0.079161,14.033216,6.75218921.562731,-5.579737,9.692673,5.9008721.596382,-13.018487,5.681045,4.20062721.63008,-34.715667,-7.930777,-2.19047321.662758,-48.285739,-22.469786,-5.42276121.696282,-21.763621,-16.250326,-4.5222121.72961,-6.631726,-11.091685,-2.11789721.762592,2.394586,-7.080955,2.43259621.796306,6.387808,-5.791781,4.63444221.828957,6.883576,-6.522936,4.3336621.862658,6.252382,-10.244257,2.27831421.89632,7.966841,-16.600491,-5.94591321.929615,4.682627,-14.89067,-10.36112821.963652,-4.17414,-21.176273,-11.72332821.99559,-39.251046,-42.30436,-13.78540822.029972,-42.590328,-26.750622,-5.44116722.062678,-25.662568,-7.30901,-2.04846222.096279,-13.71313,10.342572,-3.29259422.129633,-6.482084,18.240727,-0.70975622.162791,-3.085787,20.119494,1.92650322.196153,-2.25063,17.827563,4.28382922.229612,-6.073109,11.908885,5.32908522.263011,-10.417693,7.968038,4.15797922.296982,-25.75834,-7.256935,1.17230322.329619,-50.989637,-29.528294,-1.89358222.363342,-32.442142,-25.994027,-0.51776522.395624,-10.203105,-14.978511,-1.28453522.429517,-0.264419,-8.177089,-0.64900122.462668,5.85508,-4.302534,1.38539422.495453,7.991233,-4.607955,1.22737122.529609,7.033817,-8.670013,-0.80807222.562954,11.568148,-18.183713,-6.29443122.596302,7.569539,-18.000849,-11.34862222.629016,-2.965175,-18.762682,-14.48573722.662998,-23.323499,-36.971684,-19.73206922.696326,-39.241319,-31.262956,-12.09923122.72961,-30.609165,-10.53636,-3.11242422.763023,-19.770676,2.101885,-3.04658122.796245,-8.221084,14.523147,-1.16975922.829129,-4.498866,18.678283,2.37124222.862924,-3.26491,18.411021,6.43599322.896259,-4.675145,13.727496,8.03627522.92959,-8.178586,9.813435,5.85268522.962983,-15.840753,4.226066,2.03559322.996263,-43.736443,-18.915766,-9.23790823.02959,-40.424396,-30.358065,-10.05510823.062847,-22.858259,-22.260137,-6.39169923.096287,-5.864956,-14.314395,-4.36194223.129609,4.922355,-6.717921,-0.52689323.163016,9.039781,-4.728567,1.71221523.196309,9.675763,-6.218113,1.66013923.229658,7.519857,-12.288679,-1.05109223.262961,9.068812,-18.112483,-5.09489323.295519,3.619564,-19.912837,-10.57556623.329919,-14.072123,-31.556256,-16.7266423.362934,-35.890065,-36.869777,-16.43393823.396245,-37.964266,-20.076996,-8.0594723.429587,-23.375725,-2.167279,-4.96245923.46249,-9.301057,15.302488,-1.52650823.496252,-2.5773,17.760373,1.33212223.529667,-3.57078,16.967266,3.38986223.562633,-5.310529,13.342913,6.20928423.596271,-6.75997,9.607227,6.79139523.629609,-10.855848,6.867264,6.52413323.662972,-20.159299,-8.445848,4.83451523.696352,-39.813853,-24.022182,-0.46748523.729713,-36.459008,-23.438126,-2.41688323.762907,-14.157719,-15.744533,-4.47028423.796275,-2.645987,-9.896936,-3.46692823.829654,4.03198,-7.366473,-0.76931423.863082,9.855784,-7.471223,1.60731523.896281,9.377525,-12.695259,1.05034423.929614,7.899202,-17.116908,-2.556523.963078,4.72752,-18.800691,-7.35150923.995454,-5.896231,-20.483127,-10.7584324.029605,-27.176057,-35.808959,-14.18645124.06303,-37.096187,-30.291623,-9.19391324.096251,-33.941714,-10.627492,-2.25332324.129642,-15.307276,7.486487,-1.17110624.162052,-5.668624,18.537918,2.08781824.196312,-1.221386,20.338272,5.31756224.229604,-3.225853,16.233117,7.36527624.262952,-5.644532,11.485395,6.95914524.296357,-10.168238,8.38629,4.25554624.329732,-22.690809,-0.391167,-2.33308324.362814,-41.338415,-21.846823,-15.52859824.396305,-36.905692,-19.40884,-17.09027224.429615,-12.143525,-11.635338,-12.22822324.462955,-1.915729,-9.672172,-5.54801224.496379,2.233271,-8.062163,-1.75426424.529218,6.550171,-7.71978,0.29374924.563038,7.131983,-11.536873,-3.35185224.596363,8.553591,-16.982529,-8.94939624.62919,3.331202,-18.573234,-13.28335524.662671,-5.96806,-18.047388,-15.43462224.696632,-26.456424,-29.27031,-21.84966624.729618,-34.351137,-22.520964,-19.38833924.762964,-29.789272,-7.364678,-9.78365624.796302,-14.07362,8.866345,-2.09619824.829014,-3.818589,17.88323,2.20274424.863017,-0.865984,20.383614,4.28712124.896284,-3.681516,16.837974,4.45741424.929639,-6.14808,12.959977,4.01776324.96266,-10.604597,10.294238,2.88706124.996271,-20.52787,0.348219,-0.89860625.029856,-42.856692,-23.724393,-10.0335625.063044,-43.482948,-28.077805,-8.08086925.096297,-15.074282,-17.518101,-5.08097725.129637,1.058275,-11.053077,-1.39676725.162797,6.568428,-7.589591,1.12651225.196303,10.214478,-6.882079,1.84240425.229813,7.280429,-10.25129,-0.03561525.262474,4.283978,-17.000935,-3.02039325.296482,0.167899,-19.805992,-6.17366925.329597,-6.635767,-19.161929,-8.39152825.362574,-25.536569,-35.482438,-11.78303525.39636,-39.645504,-31.28211,-8.73645525.430238,-31.350796,-10.680017,-4.90170425.4626,-13.667788,7.31769,-4.37211825.496371,-5.676406,18.636383,-1.46455625.533907,0.027834,22.123812,2.11430525.562948,-1.911689,19.312919,3.94309225.596279,-6.523684,15.476522,4.79530825.629643,-12.316812,11.532383,4.13717925.662959,-23.238652,1.758903,3.08414125.699993,-53.399038,-27.008906,2.21651125.729597,-41.183385,-26.845346,0.28252625.763127,-11.139571,-15.33107,-4.15124525.795676,-0.504895,-10.714734,-2.24000525.829681,4.576231,-7.74926,-0.25544125.862985,7.923893,-6.733184,0.88783225.89639,7.665759,-11.132537,1.1190325.929642,5.947559,-19.137388,-2.87838225.96312,0.791312,-20.011153,-7.65528425.995826,-7.731901,-19.197843,-10.3057626.029669,-26.254107,-33.407339,-7.58016326.063055,-37.37153,-30.81702,-3.40273126.096288,-34.842864,-15.067249,-0.42887726.129615,-19.187817,4.412671,-1.6848326.162114,-10.768007,18.869527,0.18406126.196284,-2.107721,24.405418,2.67456826.229343,0.651396,22.967499,3.35020626.262685,-4.317648,18.36523,4.03108226.296287,-10.36038,14.258579,3.89625326.329622,-19.768731,5.415728,3.09491526.362695,-47.352565,-22.529793,2.70494626.396718,-46.70102,-29.852271,2.28744226.429436,-20.122038,-19.293166,-3.11481826.462565,-3.580208,-11.83541,-1.47158926.496305,3.754542,-8.198189,1.39736626.529641,9.625334,-6.945977,1.77386726.563355,9.621443,-9.045467,0.66980226.596271,7.507736,-15.232006,-3.06094626.629629,4.294603,-18.666611,-6.52443226.663027,-7.239576,-21.601558,-8.62990926.69628,-28.2056,-37.549156,-7.14036326.729946,-38.305452,-31.254127,-0.72142926.762714,-32.764772,-14.194831,3.76381926.796267,-16.535995,3.266107,1.53937726.829615,-8.399459,16.213065,0.4106226.863195,-1.143422,22.368029,1.32583726.896282,-1.036128,21.233736,2.89364626.929614,-5.776966,14.54709,4.66287426.962678,-9.324402,9.796675,4.18237126.996374,-16.215759,3.443434,3.47889927.034225,-42.132421,-23.249875,1.50091927.062003,-40.519569,-32.422239,2.42152227.096488,-20.402619,-21.820934,-0.57582627.129621,-3.332548,-13.596409,-1.93578127.162965,1.721343,-9.63521,-1.3536727.196357,7.005086,-6.537002,-1.82280127.229617,7.968337,-6.159603,-2.02137727.262781,7.953074,-12.519877,-2.79607827.296377,9.151115,-18.201072,-6.06188627.331411,0.931976,-20.172617,-8.98860327.362592,-14.965492,-29.185462,-10.45121327.396357,-34.043321,-40.764534,-8.54251727.429604,-37.809535,-28.622356,-2.06327727.462775,-26.532892,-8.848537,0.0923327.495771,-12.394027,10.341974,-0.99647227.531082,-3.922441,20.704149,0.15817327.563087,-0.998567,21.038751,1.3328727.596314,-3.953118,17.700366,3.66460627.629614,-7.332205,12.537236,4.54465627.662787,-13.334384,9.104576,4.14555927.696517,-25.396653,-5.487706,1.3996127.729619,-42.853251,-26.18976,-0.72950927.76295,-43.456611,-30.647923,1.36564227.796286,-17.355439,-20.172617,-2.06417527.829683,-3.04703,-12.380859,-2.67591527.862963,2.685792,-9.076443,-1.58516827.8963,7.481549,-7.73265,-0.51073127.929549,8.262685,-9.683844,-1.19220527.962876,8.274806,-14.744619,-3.73987727.996303,5.451941,-17.433852,-6.79962628.029653,-7.583905,-19.930495,-9.63461128.062716,-23.906957,-35.124791,-9.27277528.096579,-37.704785,-33.185119,-4.46250228.129158,-33.026498,-14.815699,-0.64017328.162599,-15.915874,2.542134,-1.66657328.196282,-8.04271,13.682453,-0.64570928.229617,-1.627816,18.090785,1.18068328.262965,0.109688,16.08527,1.90809728.295298,-2.062828,12.987062,2.83019728.329583,-8.314461,9.886012,3.29468928.363116,-17.737478,-0.026038,2.05833928.396281,-32.150937,-12.978982,-0.3226328.429831,-41.526666,-26.817662,0.35824528.463047,-27.317021,-22.124859,-0.7416328.496391,-6.855293,-15.084757,-2.46177628.529709,-2.299713,-12.443559,-1.15225128.562784,3.779233,-9.711528,-0.75255428.596387,8.59175,-9.755673,-1.1693128.629099,8.397663,-13.791244,-2.29986228.663276,9.088115,-19.646922,-5.33806328.696335,-0.353906,-18.336199,-7.01017328.729721,-9.464168,-21.26965,-6.50557728.762107,-23.184182,-35.249294,-5.65351128.796341,-34.412491,-31.674773,-2.70419828.829007,-26.773069,-9.476738,-1.62362628.86282,-15.72044,3.141754,-1.80903428.896299,-11.234893,15.377608,0.27938328.92962,-3.074863,20.4731,2.94916328.962658,-2.355081,19.085761,4.46489728.996365,-4.08211,15.077125,5.48067329.029377,-8.789877,11.05592,5.35871429.062623,-20.69128,-1.688721,4.33096629.096494,-36.533979,-20.290386,2.68504329.129612,-45.297219,-30.082123,3.1809629.162757,-15.623622,-18.940158,-2.57071629.196924,-5.808391,-13.974257,-2.60124329.22886,0.361088,-8.381651,-0.49412129.262998,10.827266,-5.031445,-0.01212129.296274,13.081188,-7.606201,-1.59833629.329628,9.353881,-12.840263,-3.93156929.363044,5.642287,-17.618661,-7.86687929.396321,-5.278505,-22.569,-9.74639529.429617,-19.50925,-29.479062,-7.03800729.462786,-35.212332,-37.141679,-3.48727929.496286,-37.527159,-21.884383,2.5898729.529634,-24.671034,-5.876778,2.94392629.562727,-13.879533,8.208365,0.77889229.596615,-1.477126,22.263578,1.25535529.629615,-0.482748,22.414269,2.27472229.66297,-3.588288,18.938811,3.83400229.696373,-6.958397,13.494053,4.85845829.729504,-11.957968,8.424748,4.66511929.762644,-23.378119,-2.850997,5.26773129.796322,-42.310346,-24.162996,3.91989729.829612,-35.359431,-26.338655,-0.02184829.862822,-13.273479,-18.995526,-3.44642729.896368,-6.193722,-15.747227,-2.14827429.929403,2.716768,-9.271877,-0.2096529.963059,9.462372,-7.341034,1.32628529.996318,11.82718,-11.055771,1.26059230.029827,10.278375,-15.488644,-0.84458530.062779,5.730577,-19.461664,-7.17388330.096299,-5.35632,-22.71116,-11.20002630.129715,-15.240087,-26.036376,-12.78010630.162648,-22.922157,-27.525623,-11.34622830.196352,-25.608846,-20.884768,-7.04324530.229705,-21.673387,-9.130913,-2.69147830.262631,-14.470623,4.519516,-1.96690730.296418,-5.894286,19.511196,2.58538130.340699,-3.324168,20.918288,6.24639630.362105,-5.995744,19.177641,6.31074230.396307,-11.511583,12.564321,4.89631730.429611,-16.89828,3.506134,2.36884830.462567,-32.090331,-10.896102,-1.00814530.496463,-37.310476,-26.348382,-8.29560630.529651,-26.121074,-21.175375,-10.90448230.562695,-11.833016,-15.991743,-10.0836930.596497,-6.791246,-13.967523,-7.20351230.629535,-0.403886,-9.035441,-2.12433130.663208,5.591259,-8.232008,1.51184330.696297,11.367028,-12.292121,2.42705930.729659,13.142242,-15.400803,-2.13720130.763028,8.045403,-15.508247,-7.64555730.795806,-3.80946,-20.036891,-13.88028130.83031,-23.779611,-34.180095,-20.9720130.862673,-29.239184,-27.101834,-18.83974830.896379,-26.875724,-11.083006,-10.53486330.929633,-16.542878,3.434755,-4.41596330.962024,-5.955789,18.437059,1.31266830.997772,-1.333319,20.290237,3.45061731.029637,-4.522808,17.471862,4.51757131.063057,-9.288188,11.962607,5.52107731.09584,-13.570071,7.419148,5.0039131.129634,-23.038729,-5.000469,2.7956331.162643,-39.0396,-23.833482,-3.4742631.196283,-33.396565,-24.881881,-6.02776831.229511,-15.701436,-18.464144,-5.99813831.262821,-5.742698,-14.901445,-3.77818531.296369,2.854439,-11.110241,1.36728831.329298,8.999228,-9.669778,3.00946931.362619,10.010515,-10.024132,2.4182331.396366,10.651435,-15.283034,-2.62099631.434131,6.401875,-20.438383,-7.01331631.463036,-6.113663,-24.044329,-10.14055431.496304,-21.228049,-32.886432,-10.91091631.52961,-29.321638,-28.118359,-7.72890931.563111,-26.243482,-14.121955,-3.33554131.596281,-16.934344,-0.75839,-2.13720131.629631,-6.315381,14.109385,-0.23718431.663155,-3.451515,17.580502,1.61808931.696384,-4.531637,16.251673,2.88197431.729703,-7.66546,11.692651,4.97862131.763104,-10.113319,7.833958,5.15594831.79639,-14.832609,3.52888,4.64162531.830492,-33.685525,-16.071353,1.22826931.864437,-37.600634,-27.704746,-0.85386331.896906,-26.699743,-23.692519,-2.5395931.929606,-10.215376,-17.420235,-2.75851831.962872,-0.777994,-11.776601,0.02364431.996368,6.029563,-9.781262,1.61135532.029353,9.128968,-8.992194,2.47988332.06221,9.241799,-13.677365,0.25125132.096442,6.777778,-18.282028,-3.40392832.12953,0.168648,-20.321662,-6.936432.162791,-6.146135,-20.386906,-7.95636632.196298,-16.439774,-29.897913,-10.66370632.229869,-26.45403,-27.920082,-10.36412132.262915,-28.751797,-15.518871,-6.40037832.296529,-16.276514,4.247316,-3.70291532.329339,-7.906834,13.713729,-0.77350432.362964,-4.42569,15.876518,2.14243832.396366,-4.211401,14.41735,6.26809432.429385,-4.001752,10.710245,7.51491932.462605,-8.916325,7.522551,6.4250732.495994,-17.151177,-2.19601,3.74840632.536177,-36.483399,-24.281214,-1.18487332.562718,-34.20314,-27.203591,-3.82307832.596249,-15.593992,-19.285684,-5.96910832.629594,-5.624629,-13.644294,-4.22367232.662603,0.328766,-8.833573,-0.40538332.696277,6.916347,-6.179206,2.0997932.729472,8.756656,-8.261338,1.56451732.762681,9.816877,-13.990568,-2.38680532.796263,9.934496,-18.417455,-8.79526432.829585,4.632796,-20.457388,-13.94313132.862918,-8.449739,-24.876793,-17.12738332.896253,-21.862535,-30.963221,-17.16554232.929555,-26.287178,-26.343593,-11.15767732.96253,-23.640892,-7.758388,-4.30298332.99626,-15.930838,8.362646,-2.82933.02958,-8.307877,19.26219,0.24646233.06221,-3.72985,19.697351,2.57595433.096279,-7.822735,15.713108,4.56201533.129613,-10.940545,11.567849,5.09683933.16299,-14.587943,5.581981,4.4089333.196509,-27.418628,-9.241051,1.40664433.229616,-35.030516,-21.912815,-0.62475933.26296,-34.22409,-24.873202,-2.54093733.296255,-14.908029,-17.432057,-1.94311433.329615,-7.03247,-13.722408,-1.19834133.363045,-1.199239,-8.970496,1.57080233.396288,9.047413,-8.190108,4.9244533.429636,12.242289,-12.398068,3.97511533.463113,8.54132,-16.85234,0.4023933.496279,2.813437,-22.78239,-3.457833.529617,-9.986871,-25.776297,-10.06199233.562941,-21.759731,-30.979831,-13.18698533.595893,-28.851459,-25.859498,-10.60369933.629589,-26.141426,-9.312281,-6.83374433.662766,-16.901273,5.722346,-4.84409233.696249,-6.694876,19.080823,-0.67279533.729605,0.546795,22.413371,4.23025633.76219,-4.693401,18.089737,4.32438233.796125,-11.80623,14.370212,4.88479533.829593,-17.175868,6.711337,3.84103533.862686,-32.468928,-10.239468,1.60013233.896327,-33.709169,-20.354733,-0.31754233.929583,-30.533297,-21.533021,-3.07531233.962555,-13.570071,-16.038581,-3.28690733.996251,-6.008913,-14.226256,-2.89843434.029593,-1.356813,-10.594272,-1.37836134.062761,3.603253,-7.911623,0.31574734.096352,5.177347,-9.658854,0.60306134.129367,7.996919,-12.731921,-0.71544334.162783,11.234594,-14.127042,-4.00160234.195929,1.342447,-16.281901,-10.46572834.229639,-11.466092,-25.940754,-14.53422134.262707,-28.401782,-35.465827,-17.14264734.296253,-29.708914,-15.75845,-8.39422134.329647,-18.214839,-0.106246,-3.87515434.362592,-9.299262,11.439455,-1.07862634.396284,-3.247851,16.379318,1.3744734.429652,-3.357988,15.308623,3.6460534.462947,-5.866752,12.571205,4.38842934.496253,-8.245177,9.418826,4.34368634.529016,-13.052606,4.454422,3.7760934.562573,-25.656433,-7.360188,2.71691734.596284,-42.010611,-24.958947,2.28160634.62983,-30.921321,-24.009612,-4.24297634.662714,-7.72816,-16.65541,-6.59641134.696306,0.294198,-15.067848,-3.28960134.728824,5.677753,-12.550853,0.43965134.762633,8.305483,-10.447023,1.12606334.796316,6.377184,-10.565091,-2.44067634.829676,6.256871,-10.382826,-4.96350734.863124,0.451173,-14.943045,-10.31503834.896284,-4.683226,-16.91504,-13.34096834.929628,-8.855121,-21.823778,-17.89325634.962975,-15.425943,-17.021736,-16.7306834.996303,-15.015473,-8.816513,-10.21926635.028982,-9.110113,-0.665163,-3.06229335.063177,-4.428683,3.824275,1.39901235.096248,-4.791866,6.337828,2.89050335.129057,-7.622961,6.290241,0.94858735.163106,-7.915813,4.195839,-0.3393935.196292,-11.390522,-2.544978,-8.03073835.229636,-13.209282,-9.209775,-12.24737735.262588,-11.245518,-17.379981,-16.61994435.296269,-14.042943,-16.776321,-15.03582435.329616,-2.855337,-16.539736,-3.53232235.362999,1.863055,-14.123301,0.23134835.396282,3.80961,-9.742953,1.03029235.429714,7.016907,-7.101156,1.31745735.462353,7.735493,-9.827052,-0.63792835.496372,10.080248,-14.684762,-4.57533335.529705,4.95378,-17.700965,-11.33859635.563377,-2.111761,-20.326151,-14.79699435.596278,-11.08974,-29.148501,-19.21385535.629724,-19.647221,-25.081505,-14.62505435.662537,-16.694766,-10.642906,-2.81403635.696278,-11.075374,-1.038073,-0.77335535.729638,-5.803902,8.884751,-0.20321535.76272,-2.114754,13.804861,1.32748335.796276,-5.276859,12.87079,3.31683635.829622,-7.244664,10.114965,4.3504235.862634,-10.762171,3.912564,3.89670235.896042,-21.988984,-9.998094,2.51579735.929587,-29.487442,-24.294532,0.08933735.962691,-27.517243,-29.49672,-1.71924835.996263,-13.376882,-20.115155,-2.77707436.029619,-3.485783,-14.147543,-1.07593336.063018,2.236713,-9.171766,1.56840836.096283,7.374853,-5.375624,2.24299836.12961,8.317005,-6.092862,0.26860936.162705,9.22025,-11.153038,-3.40976436.195922,5.013488,-15.647714,-10.1760236.229642,-4.198532,-19.32504,-13.00546936.262827,-15.534584,-29.891179,-12.42410636.295656,-26.123169,-32.148542,-7.74821236.32972,-25.840793,-16.571759,1.06800236.363004,-17.25024,-5.583178,1.01562736.396316,-10.148635,6.447067,-0.50130436.429714,-3.052417,14.633135,0.188436.462752,-2.945572,14.293595,2.54871936.496438,-4.612295,12.403605,5.00869936.52964,-6.73513,7.222666,5.35721736.562761,-10.97227,3.026229,4.02913636.597214,-20.680057,-12.344346,0.75779236.629618,-37.629814,-30.5737,-0.93751336.66306,-22.657289,-23.672018,-1.29246636.696512,-5.54038,-15.861703,-2.05280236.728748,-0.536769,-11.486892,-0.72591836.763042,5.908203,-7.210845,0.04878436.79637,8.388684,-6.078496,-0.56669836.829323,8.58307,-8.563018,-2.6612536.862787,9.197056,-12.101176,-5.95489136.896312,4.437213,-13.271234,-8.60446936.929163,-3.892363,-18.380494,-9.21875436.962607,-15.659985,-35.417642,-12.01438336.996351,-31.664747,-30.160386,-8.43028537.029613,-23.405803,-12.461666,-3.35634237.062659,-12.752722,0.365428,-2.34131437.096363,-3.291696,12.674309,-0.47002837.12961,-2.276967,15.115584,1.21674737.162537,-4.839902,14.596472,2.90576737.196365,-6.008613,12.091898,4.1280537.229566,-10.564343,7.435758,3.7801337.262538,-18.869377,-2.46836,2.58433437.296266,-31.85614,-19.164473,-0.68117537.329624,-35.119853,-27.38017,-0.95726637.362645,-14.00643,-18.158423,-4.00803737.396376,-3.644704,-14.689999,-3.97855737.429097,2.750737,-11.246865,-2.26260137.46278,8.702934,-9.300159,-2.16114337.496363,10.478747,-8.864549,-2.91339937.529614,9.395482,-11.476567,-4.04140737.562276,4.907092,-14.653786,-6.80441437.596182,-3.338085,-16.880323,-7.83126437.629687,-13.411151,-27.411745,-9.5933137.663036,-27.194463,-32.075517,-10.53965237.696386,-28.216824,-22.211203,-7.18405937.729623,-21.317536,-8.110797,-2.58074237.762599,-13.608829,3.561053,-1.93428537.796289,-7.048931,13.909013,-0.34612437.829613,-4.370771,15.222279,1.46081437.862887,-3.911068,14.228201,3.22944437.896304,-5.171361,9.546771,3.67702637.929617,-9.750734,3.983196,2.98118737.962516,-17.295732,-7.797445,1.41966337.995786,-26.877968,-27.344854,-2.10412938.02875,-26.936329,-27.762957,-2.03424638.062575,-10.609236,-20.715672,-2.97011338.096284,-2.358672,-12.99634,-2.44007838.129638,2.92133,-9.470603,-1.52935138.163268,7.375602,-8.660735,-1.18053338.196508,10.091621,-8.116035,-3.14414838.229008,13.054701,-7.707809,-7.28880938.263043,8.778803,-9.578944,-10.56419338.296371,-2.675466,-17.847316,-14.79175638.333922,-22.11603,-35.22176,-20.78540538.362948,-26.46241,-27.3468,-15.10750338.39627,-21.5839,-15.030138,-6.33004638.428832,-14.620266,-1.765637,-1.05004538.463048,-5.800161,12.754218,0.57507838.49638,-0.101308,15.661332,1.10990238.52959,-3.584547,14.613981,1.63095838.56316,-7.128691,10.757233,3.19023838.596129,-10.423379,6.738871,3.68151638.62961,-18.927289,-7.268308,3.98214838.662832,-32.891669,-27.40546,4.45681638.696381,-27.526371,-27.372239,1.39347538.729612,-13.973209,-19.173302,-2.44381938.762731,-3.483538,-14.682367,-2.84351538.796281,3.299477,-9.267088,-0.36677538.829595,7.779488,-7.209648,0.54978838.862567,8.331221,-8.853475,0.16625338.896275,8.810378,-15.136534,-2.98672438.928854,6.280066,-18.562908,-6.04318138.962923,-3.323121,-22.244274,-9.42705738.996256,-13.793937,-27.031502,-9.4677639.029665,-21.905632,-31.976303,-8.58097539.062975,-22.411725,-24.634521,-5.36918939.096246,-20.89255,-13.544333,-1.76503939.129638,-13.23098,3.142801,-1.22228439.162583,-6.655071,13.002476,-0.64511139.195384,-3.029521,16.110111,0.53317839.229583,-3.468125,14.347915,2.82316439.262965,-6.270488,11.019707,3.79075539.296151,-10.658618,7.521503,3.88847239.328646,-19.218344,-5.040573,2.70853739.364007,-36.668059,-26.745534,-0.30721739.396275,-35.28042,-28.978806,-2.42750839.429588,-14.860143,-19.866448,-4.09632639.462545,-3.432061,-15.403048,-1.85332839.496262,0.054919,-11.531785,-0.4399539.529593,6.252531,-9.287589,-0.91431839.562627,10.75409,-10.85899,-2.011539.596293,10.571227,-13.916794,-4.2079639.629598,7.060753,-14.970131,-7.28357139.662857,-0.881247,-15.836414,-9.38111639.696266,-15.104809,-30.483465,-11.2571939.730585,-32.089434,-36.1898,-8.96211639.762666,-33.672207,-23.843658,-3.27987439.796285,-18.292503,-1.841805,-1.26538139.82965,-10.273886,10.197568,-0.90309539.862818,-4.299392,16.997643,1.18472339.896378,-3.328658,17.372948,3.12469439.929445,-4.621872,14.574176,4.47507239.962674,-6.994162,10.903135,4.81610939.996362,-10.713088,6.842424,4.4467940.029246,-30.744143,-13.971863,2.31093640.063667,-39.487182,-30.927007,0.99722140.096281,-29.767125,-28.004031,-0.84069440.128896,-5.967013,-15.633498,-3.29109740.163055,1.00171,-10.329703,-2.23970640.196313,5.855977,-6.578603,-0.57612540.229612,9.720207,-5.824852,0.81435740.262444,10.149683,-8.355763,-0.10115940.296247,11.616034,-11.88599,-2.93285240.329614,6.427464,-13.978896,-8.27615340.36292,-8.558828,-21.500848,-14.78996140.39626,-22.777003,-36.150444,-17.54623440.429589,-28.916105,-30.130757,-13.48881540.463081,-23.132405,-11.431374,-5.37457640.496268,-13.888661,0.562807,-2.55620140.529598,-6.244451,12.488452,-0.92509340.562649,-3.991426,18.156328,2.22773540.596378,-5.593653,16.962028,4.45142940.629684,-6.8104,12.77846,5.76379740.66322,-10.277927,8.445698,5.21131640.696281,-23.107864,-8.225125,2.11310840.729616,-33.983614,-25.236086,-1.64652140.762796,-33.089647,-29.271507,-2.29597240.795477,-12.102972,-19.500571,-2.94108240.829609,-4.767624,-15.419359,-1.92635440.862962,-0.186305,-10.765314,-0.12435340.896262,7.637177,-6.764909,1.75007440.929581,9.877033,-6.964083,1.58382140.962912,11.386182,-11.664967,-0.97282940.996212,7.597522,-14.712446,-3.98229841.029579,-2.96727,-19.04835,-7.97716641.062956,-10.474557,-30.771229,-9.41373841.096253,-24.423225,-35.811353,-7.8412941.129589,-27.285446,-19.66877,-2.66514141.162989,-18.427182,-4.195689,-1.70353541.196257,-11.46265,9.876734,-1.26089141.229514,-3.783273,18.272302,1.66717241.262668,-2.853092,17.078151,3.667341.296304,-5.169565,14.134076,5.58407641.329638,-9.003268,10.235578,6.08642841.362826,-19.873182,-3.536063,4.00309841.396301,-33.48246,-17.662357,2.42212141.429696,-35.50653,-29.243075,-1.13818441.462542,-18.997621,-21.718579,-1.92485741.496261,-5.079779,-15.245025,-1.2278241.529609,0.94305,-10.201609,0.45730941.562959,6.82312,-5.570758,1.97049841.596261,8.656695,-5.091003,2.39772941.629583,8.090147,-9.301806,0.84967341.662954,9.160243,-16.675911,-3.93351441.696306,2.487365,-18.13478,-12.39896641.729682,-4.091388,-20.011153,-16.85563241.762998,-18.264371,-33.042061,-18.37824941.796357,-30.407447,-26.615046,-14.01675641.829311,-26.925704,-9.039182,-8.49328541.863031,-17.27119,5.168667,-5.37382841.89593,-10.389411,16.726939,-0.17463341.929614,-3.614027,21.991228,5.83712241.963109,-3.632732,18.536272,8.12306841.995728,-8.177388,14.42543,8.3485842.029661,-17.244255,5.052844,5.71860542.063664,-34.661048,-11.31166,2.48362442.095654,-40.023503,-25.965146,-2.17700642.129619,-27.274971,-21.762274,-7.97207842.162992,-10.40632,-15.60731,-5.67116842.196282,-3.555367,-13.234572,-2.25945942.229703,1.296357,-10.289449,0.18136742.262653,7.450722,-8.386889,3.3401842.296364,9.189723,-13.011155,3.36936142.329696,9.927463,-17.475004,0.75824142.362947,4.181473,-17.308003,-4.87372142.396365,-4.147055,-18.887633,-9.21142142.435179,-24.71892,-34.762655,-13.01369942.4626,-36.70517,-32.26706,-7.48304542.496277,-28.334293,-13.39469,-1.8397142.529611,-16.774226,0.551734,-2.7829142.563017,-8.509596,14.386523,-3.00423242.59652,-2.933002,22.896718,1.08700642.629609,-3.148937,19.82784,3.65727442.662807,-7.290754,14.074218,4.96874442.696342,-14.214883,8.315359,4.82493842.72959,-25.71644,-8.799454,3.51810642.762942,-41.811885,-25.946441,4.91726742.796159,-38.613267,-30.111752,3.91884942.829624,-10.771,-17.182901,-1.14506842.862733,-1.038522,-12.729377,-0.01526442.896311,4.3169,-8.831777,2.16159242.929629,9.627429,-6.672729,2.55171242.963026,9.075845,-8.379855,1.69096542.996285,8.641132,-12.729377,-0.65648443.02962,5.814227,-17.469767,-6.34186843.063457,-4.349372,-20.684546,-10.03161443.096186,-23.054292,-34.326296,-10.63602243.12989,-39.805323,-31.805561,-2.57580443.162639,-32.748311,-12.48935,0.58046543.196268,-21.636574,1.119629,-1.61913743.229615,-11.241926,12.518979,-2.31392943.262853,-3.321475,20.136703,1.7518743.296284,-0.207704,19.19904,8.53398843.329645,-1.558232,16.041574,7.17956943.362668,-9.541234,11.641473,3.44672643.396124,-20.219306,3.829662,0.56355543.429202,-43.382538,-19.632556,-6.61496643.463088,-48.516039,-30.8673,-4.52834543.496262,-13.451853,-18.225912,-0.29060743.529088,-0.770362,-12.493989,0.88633543.563031,3.42428,-8.056776,1.91842343.596351,6.346058,-5.337315,2.67157643.62959,7.193336,-7.371561,2.4351443.662958,9.51355,-13.355184,0.47900743.696291,4.802641,-17.176167,-5.96192543.729621,-4.938517,-19.315762,-13.17710943.763013,-16.32814,-29.426088,-15.06350843.796431,-33.041013,-29.448235,-9.55410443.829751,-31.153716,-14.520454,-3.47276443.862651,-20.207185,-2.122386,-2.81373643.895903,-11.149746,10.404674,-1.89058943.929044,-2.599897,20.855438,2.36166543.962914,-0.690303,20.399925,4.4969243.996277,-3.253836,16.921325,5.56177944.029639,-10.211186,11.645214,4.60331644.062797,-21.426027,0.581812,1.83207944.096415,-42.44263,-16.808943,-2.95963844.129618,-44.768082,-27.786002,-4.0568244.162946,-16.413886,-17.043284,-4.99313644.196359,-4.487942,-13.066224,-4.08300844.229612,-0.039057,-9.948413,-1.99279544.262728,6.19851,-8.179783,-0.34462844.299233,5.918678,-9.942876,0.4106244.329598,5.759009,-14.517461,-0.0963744.362724,5.348837,-17.445075,-3.227244.396444,-1.337359,-16.119089,-6.11336344.429947,-7.903243,-20.829251,-9.2329744.462662,-21.158166,-32.467881,-12.73401644.49643,-33.099972,-20.191323,-5.62986744.529251,-21.496658,-4.637136,-4.69639444.562996,-12.812429,9.030802,-4.6018244.596318,-4.613941,16.661695,-0.06569344.629495,-3.631834,15.789276,2.01703744.66239,-4.871028,13.229035,3.91421144.696306,-7.256486,9.187179,5.03428844.729616,-11.307919,7.344326,4.58655644.762077,-24.107179,-4.621872,2.02826144.795854,-44.892285,-22.600574,-2.04801344.829889,-31.525579,-21.460445,-2.57789944.862911,-9.047861,-13.992813,-2.14288744.896284,-1.766834,-10.936056,0.00104844.929638,5.557889,-7.434561,3.13531944.963006,8.86395,-6.985782,3.30815744.996302,8.262984,-10.126189,2.1961645.029059,9.241051,-14.984347,0.49486945.062918,1.535037,-20.976499,-5.28299545.096435,-9.74011,-24.344364,-9.65451445.12919,-22.832222,-31.602495,-12.49892745.163305,-32.033916,-27.544777,-9.04172645.19626,-26.987507,-12.211463,-4.97712445.228997,-17.997408,1.667172,-4.36807845.262578,-7.110584,16.370938,-0.9975245.296281,-2.292829,18.720033,1.84734245.329639,-2.398627,15.978575,3.96508945.362985,-6.683802,13.459186,5.40615145.3963,-12.725786,9.606928,4.75176245.429713,-19.518827,2.837978,2.80101745.46266,-37.286383,-16.584778,-1.48834945.496263,-45.48951,-28.854153,-1.90106445.52965,-16.933147,-17.455102,-1.75112245.562622,-3.439693,-13.816533,-1.67779745.596245,2.298216,-9.171915,0.6497545.628782,7.335946,-7.850269,2.32006445.66284,7.96714,-9.659901,2.76585145.696257,8.496278,-14.632836,1.91318545.729602,4.911132,-16.704642,-2.13600345.762676,-1.748578,-17.092367,-6.20883645.796449,-12.1329,-25.361038,-9.69312245.829617,-37.956485,-34.982032,-10.47021845.863013,-34.938486,-18.176979,-4.30687445.896323,-21.660667,-3.638568,-3.57721545.929612,-11.408928,11.161119,-3.12394645.963033,-5.870642,15.210757,-1.00036345.996359,-5.046858,15.90525,2.25287546.028673,-4.689211,14.772602,5.72623746.062792,-4.262729,10.174972,6.81548846.096355,-7.186603,8.718946,5.16402846.128701,-14.032318,4.494975,3.24470846.162934,-43.513176,-23.052047,-2.68205146.196708,-44.944511,-29.688263,-0.15218746.228938,-16.761058,-19.269971,0.30751646.262977,-0.819445,-10.990826,0.41645646.296281,4.393966,-6.866367,1.55045146.32971,6.709541,-5.402559,1.35756146.363014,6.196864,-5.068407,-0.00538746.396387,6.639658,-9.416582,-2.24703846.429615,7.861492,-15.422801,-6.15301946.462726,3.447474,-15.021758,-10.67777246.49646,-6.340072,-18.597326,-14.01959946.529181,-30.030795,-35.459393,-18.5539346.56261,-39.241469,-24.281214,-13.37224346.596341,-25.193138,-7.048781,-6.90213146.629621,-11.317346,8.055729,-2.08078546.662703,-3.476355,15.264179,1.61689246.696304,-1.941168,18.574281,4.60421446.728792,-1.425499,15.556581,6.80591146.763036,-3.00064,11.682924,6.30924646.796131,-9.560688,8.885649,4.04634546.829611,-34.800664,-11.259584,-2.83423746.862989,-40.285677,-26.02216,-7.1120846.896453,-30.203783,-22.381347,-6.56767946.929223,-12.557138,-15.225122,-4.46205346.962632,-1.048997,-10.33913,-0.37410746.996303,3.012163,-7.672044,2.87853247.029644,5.211465,-6.080891,3.56374747.062096,5.575547,-8.68393,1.33421747.096303,6.531316,-13.062333,-3.23737647.129653,5.185427,-14.739531,-10.24261147.162669,-2.421971,-14.102501,-13.01429747.19631,-10.341076,-25.089585,-13.31822247.228781,-26.549502,-33.424099,-15.55658147.262658,-32.79081,-21.90683,-10.79105247.296282,-18.67948,-4.018063,-4.24267747.329165,-10.920942,7.171938,-1.62497347.363075,-3.683162,15.474876,1.63425147.396279,-2.655564,18.431372,5.53589147.429636,-3.047329,16.230723,8.03298347.463039,-6.063682,12.360807,7.33729347.49628,-16.345948,5.652912,4.24626847.529614,-35.923884,-10.560452,0.15592847.563301,-43.70008,-26.05987,-4.85531547.596281,-32.993726,-25.988491,-3.86243447.629611,-8.413226,-16.798768,-1.03044147.662699,1.59684,-10.640212,3.49865247.696313,6.877291,-6.323312,5.99469647.729683,7.674289,-5.266085,3.51002547.762204,6.89001,-7.495017,-0.4484847.796229,8.236198,-12.563872,-6.37703447.829609,0.198576,-17.097605,-13.98952147.863042,-8.410831,-20.017288,-16.67456447.897127,-21.490224,-30.97609,-16.90052547.935819,-35.400583,-29.123959,-10.34272247.963526,-29.928889,-12.48501,-3.89430847.996313,-20.193867,0.442494,-1.550648.02961,-12.411985,13.794985,0.89022648.062968,-4.074029,20.579497,5.79148148.096299,-2.377677,19.60996,8.7720748.12959,-2.718863,14.783526,9.03918248.162935,-9.634462,11.680829,6.05395548.196095,-21.605898,0.853563,3.40856748.229691,-38.540391,-13.761165,-1.4543848.262711,-40.75376,-25.361038,-6.66569548.296002,-22.703529,-21.425428,-2.71601948.329614,-7.523,-15.744982,-0.87840448.363033,-0.471076,-9.726941,0.46224748.396285,5.549958,-5.319807,0.86059748.429633,6.522786,-4.741586,-0.81764948.463023,7.96295,-7.410169,-4.00728848.496276,10.908223,-11.562611,-9.87808148.529638,6.311939,-10.873206,-17.14683748.562967,-6.101093,-21.967285,-20.82176948.595463,-36.442547,-39.101852,-23.2771148.629328,-39.213934,-19.82769,-8.3152148.662933,-26.637492,-1.749027,-2.87404248.696291,-16.322454,10.58664,-1.02041548.729971,-5.454186,22.87891,2.95918948.762671,0.186006,23.560234,5.84071448.796284,-0.183911,19.863455,7.05117648.829608,-6.286201,14.849519,6.412548.862619,-22.085803,2.373337,3.4239848.896285,-45.82097,-15.909888,-0.75390148.929659,-42.49725,-26.497875,-3.06214448.963007,-19.946806,-18.519213,-3.00228648.9963,-5.658748,-13.850502,-1.46350849.029615,0.329065,-9.621144,0.59483149.063043,4.106352,-5.003761,2.35433249.096316,5.608318,-4.355059,3.15896349.130107,5.85493,-8.091942,2.02706349.162653,7.022444,-16.129415,-2.640349.197022,-1.029095,-19.240342,-13.31986849.231668,-10.62435,-23.31497,-17.1245449.262651,-28.616221,-36.980513,-18.99702249.296291,-32.822085,-24.245749,-9.91444449.329967,-27.563782,-8.23141,-5.6997549.362587,-20.844065,6.285004,-4.85411849.396866,-10.572125,22.005893,-0.54978849.429619,-4.908738,25.79994,5.52721249.462707,-2.491854,23.835727,9.3083949.496365,-5.659197,18.42808,8.30473549.52904,-14.406725,14.393257,3.61881549.562906,-30.315566,0.405083,-3.10703749.596297,-51.758502,-18.419999,-17.8289149.629518,-41.299358,-25.338741,-14.73638849.662989,-16.279955,-17.884876,-6.82835749.696282,-3.650689,-13.035547,-4.55468249.729634,1.924558,-8.814269,-2.01688849.762981,5.96821,-7.965793,2.22743549.796345,7.362583,-9.699257,3.15716749.829632,9.288188,-14.138864,2.03439649.862886,6.861877,-14.099358,-4.09647649.896306,-1.092693,-14.286562,-11.21139949.929906,-13.780769,-24.211032,-19.95174449.962853,-40.466296,-25.148844,-23.36405349.996294,-34.566024,-11.955723,-11.72362750.029636,-22.07832,-0.249455,-8.22093550.06264,-12.874681,11.756399,-4.53283550.096535,-4.690409,21.174178,4.84528950.128947,-0.575826,21.740876,10.80811150.162638,1.150156,17.60654,11.72467550.196445,-4.918614,12.864355,6.61302150.229658,-10.09641,11.29924,2.74385350.262943,-31.893701,-1.60522,-5.12227850.29628,-52.557596,-22.140572,-10.19622150.329437,-31.702008,-20.915894,-3.85061250.362944,-11.204516,-15.622574,-1.97453950.396305,-1.087605,-10.021289,-0.21623450.429614,6.020435,-4.715997,2.08632250.462048,9.00237,-4.751762,1.7770150.49632,10.899843,-6.967974,-0.70362150.529619,11.455916,-9.440824,-6.17082650.56268,6.653275,-11.078516,-12.36035850.604695,-14.821835,-24.603395,-23.23057150.628785,-33.635844,-36.197282,-27.45918150.663021,-39.925037,-22.087,-18.13507950.696685,-29.265821,-5.341655,-8.4323850.728915,-17.431608,4.636687,-3.78895950.762639,-6.765358,15.386886,1.47996950.796283,-1.916627,18.546896,4.9871550.829676,-0.537069,17.935904,7.80133650.862714,-1.832976,13.098397,6.06712450.89631,-6.455746,11.007436,3.96613750.929044,-14.019898,5.982575,2.03634150.963356,-43.281379,-18.993581,-3.19293250.996287,-45.411098,-29.029385,-0.71559351.028913,-20.216912,-20.404564,-0.48678951.063046,-4.785881,-14.544097,-0.92165151.096284,2.70749,-10.035355,1.39392451.128829,6.636665,-8.128605,2.10263351.162656,8.475178,-8.103614,1.23530351.196303,7.31335,-12.356018,-1.71371151.229815,3.599212,-13.349947,-6.01863951.262669,-4.024946,-13.05081,-19.21774651.296321,-14.972226,-20.562437,-26.84639451.3296,-26.271914,-22.592793,-22.45093151.362651,-27.714772,-14.992278,-13.4657751.396289,-18.767171,-3.448372,-7.58914251.42985,-8.173647,8.282288,-2.25137851.462727,-4.212,14.261721,1.97708351.49631,-2.75373,16.758065,5.58766851.529617,-1.635897,14.225059,8.78344251.562754,-4.232202,11.086148,8.16302351.596405,-10.097607,7.570736,5.99065651.629751,-28.993022,-7.257384,1.14865951.662908,-48.073844,-27.445564,-5.70319251.696283,-25.193587,-22.210156,-3.74885551.729632,-7.33864,-17.499695,-2.44591451.762372,-0.435461,-10.625996,-0.14051551.796281,5.936036,-6.990121,2.69132851.829617,9.851444,-6.444822,4.568351.862644,10.122447,-8.362198,2.807951.896353,10.855548,-11.254047,-0.31230551.929616,5.837571,-10.390009,-5.40749851.96303,-10.243958,-18.223967,-14.8616451.995672,-43.880549,-38.183792,-16.81807252.02951,-39.389016,-24.085481,-5.62163752.062975,-25.19658,-7.869872,-1.07533452.09628,-12.984668,4.61005,-0.67279552.129615,-6.462031,13.773586,1.39646852.162975,-2.228782,19.257102,3.30202152.196288,-1.898221,18.352361,5.83188552.22962,-2.777074,14.622061,7.6778852.262414,-6.281113,10.679269,7.12674552.296283,-16.499631,0.585254,6.39948152.329642,-46.726758,-22.589351,3.92034652.362939,-39.905883,-25.910976,2.73652152.396286,-18.288912,-17.163896,0.04938252.429495,-2.549018,-10.146839,-0.23344352.463032,2.735772,-5.772327,1.12711152.496301,5.204432,-2.779767,1.40589552.529615,4.488989,-3.548782,0.46868252.562634,5.633458,-11.067143,-0.86538552.596294,6.428362,-18.878655,-5.07648752.629624,-0.433216,-23.14707,-8.26762352.663159,-16.678305,-28.668745,-5.26054852.696282,-25.168896,-34.772831,1.72089452.729703,-27.687088,-23.922071,8.1182852.762306,-17.839684,-7.010173,6.4792452.796301,-13.589076,6.623197,3.57990852.829706,-5.960129,18.555127,2.87434252.862216,0.849673,18.747119,4.28682152.896294,-5.059278,17.242309,6.93879452.929696,-7.654087,12.054937,6.45320252.963024,-10.891463,8.226022,4.73889352.997083,-32.38019,-13.146283,2.40102153.029617,-44.600482,-31.032805,-0.356353.062743,-31.599802,-27.744551,0.59153953.096313,-6.283657,-16.712124,-0.84727853.129645,-1.088802,-11.064599,-0.32592253.162971,4.283829,-6.960791,0.6748953.196555,7.821538,-4.388878,1.90450653.22866,9.526569,-5.08786,2.25945953.26267,10.594272,-10.164946,0.24466653.295401,8.919917,-16.616652,-4.47582153.333299,-4.361194,-21.573874,-14.24361453.362157,-20.681703,-33.935279,-18.30462553.396365,-32.888078,-33.932436,-13.01594453.429012,-28.638218,-21.130482,-7.27204953.463047,-17.7282,-1.284685,-2.48422353.49628,-10.425624,10.979902,0.09816653.52964,-3.598614,18.104702,2.7914453.561984,-2.991662,17.659364,5.07095153.596306,-4.560967,14.935414,5.34943653.62862,-7.634634,10.652184,4.58835253.662971,-16.561284,2.042477,2.05803953.696321,-39.220518,-18.397702,-2.81777753.728746,-45.947717,-31.59202,-6.56992453.762659,-16.668728,-19.434429,-5.51284653.796371,-3.608789,-13.161097,-1.8690453.828751,2.254521,-8.535484,1.85976353.862084,5.087112,-5.221641,2.76839553.895415,4.693701,-4.640128,2.02766253.929369,4.25824,-10.683758,-0.30257853.963151,7.314098,-19.466303,-4.51966653.995399,0.402091,-18.514723,-13.65387154.029662,-9.120738,-20.434193,-15.36174654.063039,-19.501469,-32.990434,-13.76475754.095302,-26.503562,-27.514849,-8.64547254.129614,-22.021905,-8.319849,-3.24934754.16229,-13.590722,3.964341,-2.10083754.196285,-5.832334,13.092411,0.06389854.228692,-3.942493,17.36337,3.6463554.2636,-4.196587,15.780747,6.63980754.295415,-4.757897,11.434666,8.09852754.328658,-9.497838,7.19184,6.16843254.364089,-23.899475,-6.739769,3.14983454.396119,-41.180542,-25.369867,-1.28124354.429725,-31.910311,-26.061816,-1.60058154.462926,-11.122362,-16.675462,-1.91079154.495329,-3.072469,-11.529091,-0.79595154.52867,1.113044,-7.708856,1.60222754.562307,5.253066,-5.098634,2.46761254.595427,5.618793,-5.789835,1.17828954.629607,8.370578,-10.74586,-2.15141754.663,6.951513,-15.887891,-11.14331254.695564,-4.53897,-20.541038,-14.91895354.729921,-15.093137,-27.876985,-12.60756854.763069,-27.059635,-31.319969,-9.84755354.795432,-26.633003,-15.539522,-3.5748254.828714,-17.454802,-4.742784,-1.843954.862101,-10.74167,6.544485,-0.30946254.895532,-3.926481,19.123171,3.17467554.928966,-1.589956,18.54555,5.1468254.962972,-4.026592,15.376711,6.0644354.995999,-8.21854,9.724098,4.38588555.029684,-15.018016,5.208921,2.01284755.069759,-42.698969,-18.28966,-5.78414955.0955,-45.081285,-27.617055,-7.31993455.128679,-23.043218,-20.706992,-5.90266655.162991,-6.713731,-14.014062,-3.56329855.195395,0.573282,-10.319078,0.51402455.228729,6.363866,-6.324061,4.48898955.26254,8.328378,-5.920025,3.75783455.295439,9.02347,-7.546643,0.38263755.328761,9.492301,-10.086384,-4.23160355.36303,1.182179,-17.846867,-10.73598455.395495,-13.583539,-25.399646,-13.70789255.429649,-29.77745,-36.729113,-13.59416455.462975,-30.491546,-22.503606,-4.28218355.495931,-20.460381,-7.990634,-0.4022455.528773,-12.660392,1.417867,-0.4653955.563105,-6.429708,14.686408,1.92455855.595554,-2.193167,17.052263,4.45711555.62888,-3.327461,16.586724,6.32600655.662243,-3.587839,12.782351,7.11103355.69564,-7.991532,9.277713,5.48995155.728754,-16.015087,2.1375,3.90418455.762962,-36.376105,-13.993411,-1.0100955.795415,-41.836576,-26.631357,-4.62232155.829639,-20.308793,-20.690382,-4.56096755.862111,-8.028045,-15.365338,-3.57990855.896009,1.376117,-9.239105,-1.5592855.928879,6.659261,-7.596624,-0.33041255.963037,8.251911,-7.252745,0.60740155.995533,10.69124,-9.783806,-0.25708756.029685,10.052714,-11.283826,-4.5808756.062958,3.873508,-11.342786,-9.60438456.0956,-10.176768,-26.561473,-18.49347456.129947,-47.342988,-36.297543,-16.45428956.162624,-35.766011,-18.087792,-6.475256.196297,-21.228947,-1.945807,-3.84896656.228866,-11.475818,9.784554,-0.42393856.262665,-3.577664,18.48689,3.36098156.29551,-2.234618,17.556559,8.67420356.328858,-2.507717,15.93458,8.70143856.362707,-4.099917,10.703062,5.98092956.396412,-10.097008,9.183438,3.15342656.429122,-29.021903,-4.003248,-2.5186456.462744,-48.553001,-25.596426,-8.03702356.495534,-29.328671,-23.36091,-5.13784156.52885,-11.678884,-16.117294,-3.0132156.563085,-0.801338,-9.514448,-0.17448456.596284,3.343023,-6.346956,1.20073556.629702,4.208259,-5.086962,1.21988956.662978,2.230877,-8.318502,-1.22183556.695575,6.203149,-15.657441,-5.68538456.728908,5.457478,-13.883723,-10.27253956.762977,1.306981,-11.20257,-14.05341856.795881,-11.302382,-26.745385,-20.82984956.829616,-24.956254,-25.686511,-19.89622756.862736,-26.224777,-15.447641,-11.49362656.896285,-12.495934,1.799456,-3.92782856.929636,-5.77128,13.271683,0.72008256.962564,-1.324939,18.451724,5.0251656.995539,-2.21696,16.789639,8.01248257.029235,-4.603466,12.848792,5.74209957.063035,-8.337207,10.680167,4.26856557.096332,-16.269331,7.407326,2.17161857.129616,-50.382685,-16.795326,-8.9396757.162958,-52.095349,-26.741644,-8.14611357.196301,-21.820486,-18.459355,-4.7819957.229646,-2.025866,-11.569345,-3.06723157.262354,3.800332,-7.997069,-0.41002257.295722,7.444288,-6.534309,1.08670757.328922,8.947301,-6.804115,0.48559157.362352,10.761423,-9.264993,-2.17027257.396983,10.560153,-10.491617,-5.03204357.429712,2.74939,-13.822519,-9.90307157.463018,-22.616736,-29.105104,-17.36920657.495546,-39.27843,-34.002768,-16.3282957.528904,-35.28431,-19.822154,-7.52988357.562606,-22.230507,-5.24289,-3.20430457.595625,-9.089313,8.377162,-1.11947957.629659,-2.459681,16.871045,1.95433757.662567,-1.337209,18.848277,3.2857157.696506,-2.316174,15.912432,4.86908257.728949,-4.94555,12.253064,5.51868257.762707,-9.930156,9.327544,5.02411257.79557,-29.818452,-8.264481,2.15500857.829517,-40.793864,-22.821148,-2.55919457.862604,-34.730482,-23.779012,-4.672957.895634,-18.145704,-17.475154,-4.3041857.929616,-4.505001,-11.691155,-2.30734557.96259,2.094702,-7.811511,-0.23284457.995602,6.690087,-6.385564,1.87412858.029069,9.817326,-8.52875,2.21890658.062983,9.941529,-11.658233,-0.40373758.095719,7.028729,-10.744663,-4.37511158.129085,-0.449378,-14.871366,-10.01006658.16297,-24.31638,-37.048002,-12.11120258.195684,-38.627633,-32.506039,-5.16073658.229671,-27.935046,-13.61242,-1.28199158.262921,-13.888661,2.429603,-3.2396258.29541,-4.775555,13.841224,-1.39362558.329041,-0.144555,19.728627,2.74549958.363028,-1.55075,18.209901,5.39971658.396373,-4.704625,14.188097,6.12668258.428913,-9.954997,10.57422,5.12631858.46231,-25.30567,-3.381033,1.74319158.496344,-41.73467,-22.85781,-2.42885558.529018,-32.63997,-22.930687,-1.94820258.562311,-15.388532,-16.313775,-1.61734158.596376,-2.421971,-11.430776,-0.72861258.628993,1.987857,-7.352557,0.93437158.663091,6.428362,-4.962609,2.64808258.695633,8.800502,-6.117254,3.07351658.729011,7.646006,-10.387166,1.05094258.763156,4.803539,-13.345757,-3.24276358.79563,-3.818439,-19.281194,-10.04882358.829306,-18.282477,-29.026542,-10.86422858.862391,-29.349172,-31.40766,-6.84167658.895915,-29.460806,-21.732944,-2.4158.929675,-18.4824,-4.629205,-1.97753258.962292,-10.424277,6.725253,-1.95134458.996273,-3.892812,16.995548,0.38353559.028961,-0.932575,19.395821,3.32536659.062691,-2.85399,17.039992,4.49662159.095657,-6.517399,12.893835,4.83122359.129771,-11.100663,9.488111,4.1072559.162433,-33.071241,-10.613725,0.79310859.195621,-46.892563,-27.210924,-1.71805159.228994,-33.454476,-24.110771,-2.80161559.263193,-8.44899,-14.003886,-2.73786759.295725,-1.830582,-10.369658,-1.31625959.328978,2.81658,-7.02439,1.03732559.36232,7.553826,-5.360659,2.71676859.395671,7.8374,-7.064195,1.79975659.429634,7.854908,-9.978042,-1.03552959.463025,5.743745,-11.218432,-5.51733559.495821,-9.402515,-21.309305,-11.32886959.529119,-23.429596,-33.196043,-12.44460759.56342,-34.728088,-30.042617,-10.14474459.596629,-25.178174,-9.654065,-4.16890359.629616,-14.251545,0.112681,-2.85204559.663016,-7.087389,9.368696,-0.26307259.695773,0.443841,16.867753,3.32506659.729538,-0.521057,16.18583,3.73583659.762614,-3.059001,13.672277,4.2036259.795709,-6.410554,10.723114,4.14705559.829194,-17.939196,-0.153534,1.94161759.862397,-38.259212,-17.260865,-1.87143559.895747,-39.809962,-28.740275,-4.81730659.929622,-16.657954,-19.043412,-3.35798859.963023,-4.594787,-14.452665,-1.31700859.995463,-0.216982,-9.899779,0.45805760.029387,3.440441,-5.864956,1.19055960.065845,6.13147,-4.25824,1.31970160.096274,5.714116,-6.356533,0.09457460.129071,8.524261,-11.524003,-3.72506260.162643,3.267753,-13.632024,-10.31443960.196366,-7.809716,-19.006001,-14.13377660.229022,-21.890369,-34.16124,-15.83117660.262201,-26.708273,-25.460401,-10.26715260.295722,-22.054078,-11.380795,-5.1634360.328982,-14.184056,-1.722091,-2.76540260.362919,-7.240474,13.006666,0.43336660.395723,-2.525075,17.724459,2.76121260.429061,-2.669181,16.441271,3.94189560.462379,-4.762686,13.881628,5.37397860.495737,-9.097543,9.292079,5.3771260.529109,-15.690213,3.204454,4.21589160.562406,-34.346199,-13.670781,1.55733460.596026,-42.331595,-27.332434,-1.50855160.629616,-19.897873,-19.24947,-3.03191660.663002,-7.056712,-15.281089,-2.01135160.695784,-2.569669,-12.047903,0.54455160.729144,5.640192,-8.486551,3.00004260.762658,8.153895,-7.581061,2.98028960.795836,7.391613,-8.920964,1.44884360.829784,8.537429,-12.351828,-3.52753360.8629,1.082816,-15.853922,-7.78517460.895853,-10.499548,-21.393105,-10.11586360.929861,-24.779675,-33.740893,-9.87523760.962487,-26.576737,-25.703271,-6.66045860.995757,-23.032444,-11.485395,-2.35627861.029682,-14.778438,-1.71012,-1.8400161.062535,-6.646242,13.674821,0.1129861.09586,-2.563833,17.913009,2.51160761.1297,-2.878382,16.789639,3.93007361.165676,-6.34531,12.05359,4.93776861.195727,-10.604298,8.786884,4.39785761.229163,-21.024684,-3.028624,2.09051261.262942,-41.760558,-25.955868,-1.61823961.29627,-35.395794,-26.507153,-2.5856861.329129,-15.746179,-17.275979,-4.1406261.362992,-4.326327,-13.315678,-3.42323261.396251,1.553294,-9.879876,-0.565861.429064,6.541043,-8.496427,0.45910561.462383,7.885435,-7.56086,0.13213561.495744,8.026698,-11.394113,-2.11834661.52891,6.649983,-13.991466,-5.51194861.56276,-1.871435,-17.045379,-8.36773461.596286,-14.047283,-25.998517,-8.63439861.629636,-26.118231,-31.242305,-8.26418161.66305,-31.056748,-20.823415,-4.92968861.695554,-20.951808,-5.770531,-2.86596261.729778,-7.808668,9.204089,-1.36339761.76257,-1.685578,16.13959,1.57035361.796256,0.221472,16.205284,3.09850761.829162,-3.785967,11.796653,3.51511361.862576,-7.151287,8.871881,3.41784561.895771,-11.678584,7.474516,3.11137661.929132,-20.25956,0.912822,1.64801861.962619,-48.835078,-22.281535,-2.78515561.995829,-40.161623,-24.34601,-3.30576262.02918,-14.235833,-14.649895,-4.60705762.062486,-0.534225,-11.037813,-2.55380762.095784,4.534331,-9.60154,-0.25933162.129111,9.087367,-10.151478,0.48005562.162441,6.460834,-13.834042,-1.17739162.19626,4.592093,-15.450784,-3.96673562.229617,2.69477,-13.38212,-6.09765162.262815,-3.561203,-13.121442,-6.90946462.29579,-19.634352,-33.578979,-11.18880362.329727,-37.921618,-30.869993,-8.84778962.362934,-30.090353,-11.627257,-3.30546362.395866,-11.923101,6.798279,-2.21411762.429192,-2.629825,18.619174,0.17747762.462559,2.194364,21.794148,2.39009762.495916,-2.397879,16.032296,2.05878862.529613,-8.021461,12.334619,2.15470962.56265,-14.122852,8.699642,1.802362.595837,-32.228302,-9.190471,-2.41897862.6298,-45.317271,-26.451935,-5.48905362.66256,-27.89554,-19.173302,-6.4165462.695897,-12.013785,-10.596666,-3.52753362.729339,1.386741,-8.28573,0.86164462.762785,3.309503,-7.022594,3.23303662.795905,3.917802,-7.296291,3.43909462.829297,1.78524,-12.809736,2.19660962.862952,4.510388,-16.980883,-0.96998662.895914,1.945358,-16.096643,-3.32027862.929716,-4.064153,-15.889088,-5.65560662.962812,-16.162336,-28.722168,-8.21255562.995914,-31.289143,-28.759878,-7.75315163.029068,-29.189054,-13.120245,-5.28553963.062978,-12.364248,4.509191,-5.49548863.096304,-4.774957,15.547154,-2.61306563.129243,0.081555,20.131915,1.24024163.163033,-1.058425,15.17574,2.60124363.195455,-6.893901,12.257852,3.60355263.229241,-12.224781,9.160842,3.88069163.263063,-20.440628,4.780045,3.24755163.295866,-44.486603,-13.661354,-0.36348363.329229,-42.581798,-20.988172,-1.9571863.362985,-21.101601,-13.073706,-1.9238163.395566,-2.463273,-10.162103,0.67384263.429678,1.362499,-8.818309,2.62563563.462976,5.090404,-8.841055,1.8651563.496057,4.302684,-10.947279,0.80792263.529705,3.948329,-16.816575,-3.0090263.562508,3.633031,-17.500144,-6.93026463.596347,-4.790071,-17.088027,-8.47098863.629813,-16.937936,-24.85719,-8.5411763.662945,-32.66092,-27.947317,-8.69575263.69654,-37.04052,-15.166163,-4.65898463.729264,-17.508674,2.451301,-3.44133963.762948,-7.803431,11.672,-2.09290663.796315,-0.979712,17.023232,0.90563963.829384,1.729274,17.070519,1.97663463.86279,-0.689255,12.970452,2.76450463.895924,-5.237503,9.625633,2.50053463.929228,-12.357365,6.955554,2.02347263.962704,-40.579127,-13.841823,-2.70045763.995981,-45.282405,-21.578962,-4.86429464.029636,-25.445436,-14.005233,-6.05934264.06263,-4.172195,-8.451235,-2.21396764.096301,1.276903,-8.686324,0.36123864.129637,2.173863,-7.082601,1.52186964.162844,0.904741,-8.609557,1.6176464.196301,-0.84668,-16.626229,-1.29291564.229777,3.581554,-20.180249,-5.2765664.262694,3.318482,-16.906959,-8.528964.295944,-4.088994,-15.5907,-9.15964564.329685,-17.736281,-26.840707,-12.04954964.363005,-35.822426,-27.513053,-11.85845564.396113,-29.4632,-5.983473,-6.56109564.429398,-14.915661,5.664883,-4.2706664.46267,-7.237182,12.980029,-0.80073964.508489,0.057164,15.481461,3.3026264.529311,0.281029,13.031656,3.94847964.562997,-2.488712,9.98313,4.8659464.596301,-7.456259,7.459102,5.4149864.629614,-20.299964,-0.916862,3.79958464.684401,-44.154546,-22.643372,-1.85138364.708025,-35.369757,-19.830534,-2.96337964.731588,-14.190192,-12.742995,-3.18290564.762917,-3.007524,-11.027338,-1.68632664.795956,0.534375,-9.449653,0.97701964.829585,4.868035,-9.122533,1.37237564.862934,4.824189,-11.203169,0.27639164.895524,5.428747,-15.014275,-2.79682764.929299,3.791653,-17.351399,-6.1777164.962933,-5.653959,-17.893406,-8.67599964.99604,-15.528598,-24.780423,-11.18910265.050164,-37.958131,-21.954117,-12.1079165.065115,-33.466897,-10.366665,-9.07689265.095697,-18.713748,0.682671,-6.52024265.12966,-10.854351,9.164733,-4.01851265.162724,-4.84888,13.916195,-0.48304765.196373,-1.442109,13.885818,2.14228865.228761,-1.922014,12.50611,4.21394565.26286,-3.876201,10.270295,5.58826665.296314,-10.730447,6.307301,4.70731865.328948,-25.729908,-6.698916,0.82213865.363074,-39.841986,-19.768881,-4.01671665.395352,-33.656195,-21.411661,-3.98618965.429939,-11.330665,-12.533345,-2.06402565.462005,-1.791675,-9.443667,-0.27205165.496076,2.465816,-7.261125,1.20582365.529387,6.446618,-6.981741,1.85123365.562771,4.923852,-10.122298,0.53721865.59605,5.109409,-16.7431,-2.84501265.635622,-0.966245,-18.345776,-9.86132165.662728,-8.204025,-18.014916,-11.64566365.69603,-18.646559,-27.609722,-11.79395965.733385,-32.994025,-25.065194,-6.90018665.764447,-28.472713,-10.979004,-2.76959265.79626,-16.136598,-0.945294,-3.54055265.829624,-7.609643,8.48685,-2.87987965.862949,-3.704561,16.02227,1.06635665.896255,-2.884368,16.150065,3.23034265.929614,-1.876523,13.439134,5.02530965.962632,-6.618259,9.108617,5.25605965.995889,-17.805865,-1.400209,4.25030966.037889,-38.011254,-21.245857,1.80693966.066434,-34.051701,-22.255049,1.91737566.096251,-14.928081,-14.499803,0.22311866.129385,-5.788339,-11.30343,-0.24676166.162606,-3.011415,-9.020477,0.10579866.196122,2.736371,-7.553826,0.36303466.229622,7.006432,-11.409227,-1.33616266.263294,7.878103,-13.747997,-4.24896266.306169,3.312047,-15.224823,-9.53764366.32971,-4.665119,-17.576761,-10.50912566.362111,-16.594206,-26.255304,-11.39740566.421925,-31.961339,-19.481566,-7.39864766.432873,-29.491033,-13.323759,-5.61415466.462914,-16.975646,-3.215378,-4.05457666.496248,-9.33368,7.899502,-1.93039466.529586,0.011074,17.255777,2.84426366.562768,-0.751058,17.869014,5.3476466.59607,-1.632305,14.898452,7.84607966.629499,-5.489801,9.221896,6.46741966.662743,-16.80191,3.192183,3.27074666.69632,-40.607858,-12.685981,-4.60017466.729601,-37.959926,-23.553351,-11.20451666.762786,-21.802079,-17.913608,-8.06994566.795619,-8.61255,-13.735876,-3.79030666.829601,-1.527555,-10.075609,0.18750366.86274,4.458163,-6.196116,2.61126966.896154,6.834642,-5.363502,2.75821966.929253,6.80217,-6.414744,0.65438966.963,8.396915,-10.182005,-3.39435166.996115,2.287592,-15.151947,-12.76708767.029589,-6.433599,-17.722813,-15.03986467.063539,-18.586552,-30.660343,-14.63433267.096232,-32.96679,-27.832391,-10.13576667.129456,-29.032827,-11.946296,-5.94022667.162597,-17.760972,-1.064261,-4.80742967.196278,-7.827823,10.730297,-1.37162767.229432,-5.713517,16.887955,3.15626967.262869,-2.601393,18.008332,7.4769167.296255,0.03786,15.281089,9.50292667.329585,-4.588502,11.42464,6.72869567.362761,-10.597713,9.602438,3.25967267.39615,-31.040885,-3.732544,-4.01043167.429451,-50.61523,-23.752077,-9.78260867.462918,-29.01472,-21.212935,-5.38849367.496266,-9.899928,-15.269417,-2.61590867.529677,-0.073475,-10.056006,2.11445567.563032,5.670719,-7.696735,4.23818867.596259,7.751505,-7.580762,3.51840567.629538,7.319785,-8.522315,0.25723667.662647,7.486337,-14.020347,-7.16161267.69624,-0.779789,-18.136725,-13.01220267.736166,-15.236794,-24.336732,-8.53323967.762951,-28.403428,-32.25,-4.3963667.796416,-30.729628,-25.478208,-2.24703867.829526,-27.875039,-10.508526,-0.93856167.862969,-13.308196,3.913163,-1.94251567.900466,-5.306189,15.924105,-0.73130567.934868,0.091731,20.141342,2.49514667.962915,-0.330112,19.042514,3.94862867.995612,-3.548034,13.930412,5.66952268.029593,-8.787483,11.260183,5.08337168.062598,-14.614729,7.649747,3.56075468.096188,-43.523202,-12.85403,-1.96391468.12948,-50.161513,-23.140037,-3.39135868.166389,-18.736344,-15.891333,-6.46382768.196256,-7.924043,-12.959528,-5.18647568.229512,-2.218307,-10.729399,-1.11528968.262926,4.138825,-9.685939,1.65026268.296266,6.311191,-9.152163,1.84494868.331818,4.491383,-10.277478,-0.39700368.362848,5.128114,-13.964081,-4.26392668.396287,-0.430223,-14.110881,-9.7775268.429587,-14.024387,-18.609896,-13.17456568.46283,-26.206071,-29.216139,-16.32799168.496225,-33.238691,-20.574558,-13.70160768.529639,-25.579217,-4.775705,-7.42812668.562939,-11.085849,8.157037,-3.3150468.596364,-2.195112,16.934344,0.76048568.629619,0.933622,19.426797,3.31234768.663079,-2.592265,16.305844,4.58161868.696279,-4.465944,12.465706,5.69241868.729644,-9.50936,8.971244,5.13065868.763389,-37.998235,-9.508762,2.87134968.796383,-40.589303,-21.228049,-0.90563968.829582,-31.389254,-19.08202,-4.08270968.862973,-18.389322,-14.225657,-3.47246568.896088,-3.186048,-10.567635,-0.71948368.929619,2.41389,-6.972015,1.63484968.962417,5.492794,-4.526998,2.27322668.996344,4.417759,-3.954764,1.94969869.029649,3.848517,-9.812238,-0.21488769.062724,1.440762,-18.170245,-7.00658269.096557,-8.884302,-19.779954,-12.99394669.129614,-17.649338,-23.004909,-10.27538369.162965,-27.536846,-27.343956,-7.62191469.196703,-29.333908,-18.802337,-4.90993569.229615,-17.700666,-3.619564,-3.13516969.262917,-7.875409,7.230747,-2.28729269.296249,-0.812262,14.826474,0.22551269.329581,-0.515819,18.014018,3.28137169.36293,-1.604322,15.496874,4.81940169.398247,-3.793898,11.052179,5.31337269.429592,-15.731065,3.417845,4.04559769.462566,-39.860392,-12.832631,1.44345669.496357,-43.391367,-23.820314,-2.72724369.529611,-25.671098,-16.224288,-5.63869669.562639,-4.335156,-11.566203,-4.14466169.5963,-0.244816,-11.121464,-2.23416969.629617,2.137799,-8.601477,-0.70242469.662632,3.704112,-8.019366,1.50301469.696112,1.730022,-11.997174,1.8187669.72894,1.214502,-16.198999,-0.85984869.762983,-0.976271,-14.248702,-7.93421969.796337,-5.130957,-13.56244,-11.81266569.830433,-13.141943,-24.583643,-14.52449469.862612,-26.473932,-23.682343,-14.40433169.896802,-25.343829,-9.608424,-7.90279469.929643,-14.574325,0.383984,-5.12063269.962402,-6.860082,10.769504,-1.46994369.996282,-0.910278,18.013569,3.72341670.029687,-0.066441,16.556047,5.15310570.062673,-1.385095,13.414892,6.26599970.09644,-5.295415,10.398988,5.94456670.129506,-14.028428,6.114261,3.75005270.16308,-36.372215,-6.384217,-1.341170.195581,-49.761218,-18.663468,-3.33868470.23003,-24.683305,-16.410294,-2.51310470.262831,-8.602524,-13.126679,-2.96472670.296289,-1.000962,-8.957926,0.31739370.329632,5.534993,-6.659111,3.56030570.362972,5.496086,-5.945314,2.6989670.396391,4.63534,-8.151949,0.47496770.428645,6.253728,-12.123323,-5.03593470.462464,1.609859,-12.585121,-15.06754870.49655,-10.264159,-16.072101,-18.03347270.53027,-27.145081,-29.018461,-22.07697470.562744,-36.199377,-17.435648,-16.9527570.596293,-24.386413,-3.078604,-8.14596370.629201,-13.916944,4.361344,-3.62450270.663118,-4.328722,15.222578,1.69156470.69575,-1.300397,18.32318,4.82134670.729629,-0.675039,16.567719,7.41690370.781183,-4.293256,11.168901,6.43150470.796273,-7.939456,9.859525,5.20248770.829733,-24.289145,-2.650326,1.90974370.863022,-44.001012,-17.808109,-3.73957770.89629,-34.740658,-22.167208,-4.13553270.929616,-13.677964,-15.415618,-2.86865570.962415,-4.375859,-11.666164,-0.7712670.996261,2.136901,-7.342381,2.09754571.029616,5.27656,-5.833681,2.63775671.062915,5.684038,-6.003675,1.43372971.096325,7.340286,-9.536296,-1.55329471.129656,7.280728,-12.35961,-9.82076771.163102,-3.311,-16.733523,-14.00164271.196455,-16.813882,-26.271615,-12.3006571.229617,-30.95499,-29.937269,-6.65013371.262749,-29.615237,-19.049397,-2.81029571.296283,-20.737968,-6.498844,-1.1146971.329632,-9.750435,7.593931,-0.52255371.362832,-4.134335,16.464914,1.59878571.39634,-1.497926,18.130889,4.16142171.429604,-1.624075,16.282799,6.49914371.462924,-4.667064,11.84828,6.8900171.496306,-9.957691,9.546023,5.39747171.529652,-25.123255,-3.485035,2.27876371.562948,-48.690223,-25.042747,-3.18051171.596424,-32.491524,-24.408261,-0.1129871.629621,-10.944436,-18.084051,0.31709371.663936,-0.351062,-11.640575,1.83611971.696241,6.355785,-9.833786,2.86626171.729665,8.831328,-8.943261,2.85294371.762952,9.509959,-11.938514,0.76856671.796574,9.170419,-13.062482,-5.47992571.829634,0.006285,-16.883465,-10.64365471.862701,-12.410787,-22.492532,-10.76980371.896285,-26.627915,-34.597449,-9.10607371.930696,-30.77078,-25.637279,-4.93657171.96295,-27.755026,-10.23438,-0.95726671.9963,-16.502624,-0.252148,-1.61973572.029642,-6.543437,13.986079,-0.19348872.062981,-2.454593,18.691152,2.35882272.096303,-0.736543,19.184375,4.95333172.129766,-1.771324,14.164603,6.39469272.166938,-7.466884,11.221126,5.26907872.196274,-17.86647,3.892063,3.83789372.229635,-47.421551,-19.356166,0.20830372.262433,-39.989833,-26.692112,2.38560872.2963,-20.655815,-19.489497,1.95478672.329628,-7.125698,-14.057159,0.42887772.362578,1.497028,-8.601776,1.93353772.396311,5.672366,-7.052672,2.9168472.429638,8.074284,-7.931375,1.98411672.462743,10.451213,-13.438236,-2.14363572.496371,9.380967,-12.911642,-8.08550872.529377,-0.753901,-16.599593,-13.27033772.562598,-16.944969,-27.684394,-12.30124972.596301,-39.5843,-32.950329,-6.13820472.629799,-35.291344,-17.958201,-0.65483872.662627,-23.036035,-5.032043,-0.70990672.696367,-12.420664,9.902173,-0.9557772.729292,-5.978834,17.483534,1.07024672.763085,-3.020842,19.809135,3.7970472.796298,-1.933985,17.843275,6.51829772.82963,-4.025844,13.564385,6.66599572.862467,-9.447109,10.799731,5.75242572.896287,-33.751069,-8.007095,2.703372.929583,-54.909833,-25.596426,0.5155272.96275,-38.014247,-25.489431,1.82549472.996257,-12.810334,-17.996061,-0.07003373.029604,-0.262025,-9.259307,-0.53093373.063018,6.510516,-7.283571,0.55891673.096298,9.213217,-7.393409,1.43193373.129611,8.80125,-9.40461,-0.7625873.163539,9.998992,-12.742247,-5.06855673.195763,3.507631,-13.340519,-10.80137873.228998,-9.223393,-17.280767,-14.98389873.263296,-26.721591,-34.426108,-14.38248373.295816,-36.899706,-27.520236,-7.67279273.329616,-30.090353,-11.096922,-2.2256473.362764,-16.174756,3.686155,-1.66537673.39631,-7.236883,13.191175,0.63822773.431122,-2.84172,18.971882,3.81903873.462596,-0.336996,19.319503,7.20949873.496311,-1.41637,15.232604,7.19019473.529721,-7.631192,12.552649,5.2262873.562753,-18.066692,4.465794,2.28519773.595786,-49.363766,-19.183178,-4.232873.629897,-42.227594,-26.333268,-1.88744673.66198,-19.64363,-18.435562,-0.74028473.696273,-3.070374,-11.002647,0.42468773.729718,3.346316,-7.377098,2.85249473.762746,6.641902,-6.251184,3.9775173.795418,7.114924,-7.245263,2.98133673.829641,8.390181,-14.157869,-1.66043873.862589,6.691135,-14.38383,-9.0987473.896297,-4.799199,-16.41224,-14.29404473.929638,-22.490886,-32.072075,-11.4038473.962695,-36.567798,-27.694869,-5.91478773.996399,-31.874247,-13.036894,-1.66417974.029385,-16.249129,0.53228,-2.55186174.062965,-8.898069,9.713922,-0.33564974.096376,-4.748919,16.813582,3.25682974.12963,-1.224828,19.333569,8.00634774.162673,0.282526,15.773863,9.01164874.200284,-7.285217,11.968443,6.41040574.2296,-12.513742,8.902259,4.55198974.26308,-44.568009,-10.479346,-1.00934274.295585,-49.375439,-22.465147,-2.83678174.329598,-27.318517,-19.190361,-2.3637674.362666,-6.312239,-12.115692,-1.21360474.396277,1.464556,-9.049208,1.29785374.429698,6.35788,-7.750457,2.6905874.462977,6.9783,-8.285281,2.07928974.496263,7.848473,-12.65276,-0.66112374.529591,7.114774,-13.495848,-6.74380974.562883,-2.180896,-15.204172,-10.9974174.596344,-18.582212,-28.687002,-8.80199874.629621,-34.151513,-30.50666,-3.92992374.662804,-35.083041,-19.154148,-0.10953974.696309,-19.319653,-3.171533,-2.01494274.729597,-10.725957,7.635831,-1.48894774.76293,-5.220294,16.529261,0.77066174.797881,-1.24877,20.214368,4.18311974.829678,1.180084,16.890499,5.57943774.862745,-1.996985,12.401061,5.33626774.896399,-9.139293,10.084139,4.00549374.9291,-35.165344,-7.542453,-1.97244474.962705,-47.842197,-22.43043,-6.84900874.996417,-33.820054,-21.514166,-6.9280275.029629,-9.804756,-13.677216,-3.48907575.062968,-1.096584,-9.400271,0.72352475.09639,5.018276,-7.234189,3.23587975.129114,7.361236,-7.387872,2.87628775.162639,6.909763,-9.53884,-0.4276875.196432,8.930841,-11.614238,-4.8907875.229054,4.036918,-10.903434,-11.02823675.262468,-11.324679,-18.199725,-11.78243775.295914,-26.092492,-33.207715,-11.07402775.328834,-37.190911,-25.209599,-4.93971475.362612,-23.18478,-7.82453,-0.43650875.396288,-13.404417,1.006349,-1.12366975.429616,-6.061587,8.518125,-0.18196675.462903,-2.522232,14.386673,2.50113275.496312,-2.71572,17.940543,7.70616375.529629,-0.089038,14.344923,9.29941175.562881,-4.021205,10.869315,7.48005275.596371,-15.005446,5.428896,4.05577375.630784,-38.614465,-9.36271,-5.15130975.662965,-49.528074,-22.185614,-9.49649175.69631,-20.756375,-17.761421,-6.88911275.729488,-6.803666,-13.931609,-4.19568975.763149,-0.853563,-10.74152,-1.15225175.796161,4.22472,-8.465002,1.18861475.829644,7.214436,-8.053634,2.43169875.863042,7.593482,-8.706676,1.53668375.89566,7.900848,-10.947878,-1.34035275.929645,0.531083,-11.798598,-8.33660975.963038,-9.532854,-17.868715,-12.49174475.996216,-23.601087,-31.585286,-13.63606476.030032,-33.140077,-21.076311,-5.0419276.062562,-21.042342,-8.116633,-3.19517676.096284,-11.929985,2.273675,-2.79428376.129643,-5.977936,10.154471,0.25858376.162917,-4.252703,14.657976,5.2219476.196308,-2.835285,13.516499,7.26232276.229205,-1.492239,11.084352,7.86074476.262646,-6.091665,8.617488,5.01752876.29636,-16.262747,0.829471,0.96160676.329562,-35.817488,-14.176574,-7.66022276.362753,-45.102085,-20.755776,-9.26529376.395557,-18.408327,-14.863435,-6.92846876.42915,-6.438537,-11.252401,-4.31704976.463031,-0.265018,-8.703982,-1.23395676.49691,4.136879,-5.957735,0.7628876.529625,5.589613,-5.920922,0.28716576.56214,7.586748,-7.63628,-1.79272376.596349,8.78015,-9.538092,-7.06464476.629631,3.070823,-10.489372,-10.88143776.662263,-8.696949,-19.45897,-12.33761276.695761,-30.380511,-36.246215,-12.24887476.730083,-35.142299,-23.035886,-2.60378776.763011,-22.40544,-8.211956,-0.20680776.796363,-13.706246,2.156654,-0.65004976.829731,-5.031894,14.637774,1.37342376.86285,-2.228034,18.393064,4.23863676.895344,-0.157424,17.038047,6.67183176.929728,-1.640536,11.796503,5.7458476.962736,-6.546729,9.904867,3.95072376.995897,-16.595852,2.876287,2.12163877.030213,-43.915566,-14.884086,-4.42254877.062585,-44.186719,-23.040525,-5.93154777.096281,-16.282499,-15.771169,-5.78190477.129642,-5.308284,-11.776451,-2.8918577.1627,3.537859,-8.060817,2.53180977.196311,5.949504,-5.703192,3.42053877.229802,5.408096,-5.578539,2.03514477.263093,5.27222,-9.810891,-0.64795477.29629,6.538798,-10.468871,-4.99777577.329713,3.55417,-9.612165,-9.33846877.362766,-8.390181,-19.456127,-14.68326577.395599,-38.269238,-35.831555,-13.6710877.429565,-35.588535,-21.439195,-5.88545777.462951,-20.682601,-6.982789,-2.7829177.49628,-8.976631,6.523535,-1.8609677.529655,-4.143164,13.732434,0.43082277.563143,-2.349394,17.325062,2.8750977.597932,-1.523664,16.541531,4.62321977.6296,-2.331587,13.061585,4.96156277.663091,-6.36222,10.757682,4.16321677.696308,-12.567164,6.372395,3.08533877.729752,-47.531388,-18.435861,-6.04557577.763269,-51.330673,-25.274394,-6.03779477.796281,-20.139546,-17.457945,-4.68427377.829644,-3.877548,-11.877759,-0.14575277.862929,1.727777,-8.929644,3.81634477.89629,5.958632,-7.185555,4.29280777.929705,6.939841,-7.035762,2.11056477.96298,6.388706,-7.394157,-2.38171777.996341,5.57809,-7.909827,-6.77897578.029632,1.286031,-10.211635,-9.99315678.06323,-16.046363,-23.476285,-10.51481178.096417,-30.497681,-31.703355,-7.9463478.129647,-30.767637,-22.353813,-3.9983178.162616,-17.434301,-6.22365,-1.0437678.196373,-9.85324,1.890589,-0.78038878.22919,-5.323249,9.455639,1.15823678.262251,-2.445315,15.308473,5.35751778.296367,0.934371,15.418611,9.56427978.329626,1.213604,11.589547,7.86717978.362971,-5.036982,10.357836,5.11539478.396364,-23.337117,-0.830069,0.0962278.436352,-53.375095,-21.06838,-6.26210878.462953,-42.39265,-21.693139,-6.49136178.49631,-9.735471,-15.856616,-5.11434778.529682,-4.102611,-12.293467,-1.50959878.562967,1.654752,-9.556199,2.69536978.596543,5.114347,-7.531829,3.96778378.629611,6.353241,-7.445934,2.22893278.662765,8.040016,-8.957328,-1.3747778.696,8.406342,-7.57313,-6.18653978.728756,-1.150455,-9.752829,-12.91583278.762886,-20.715223,-28.225204,-14.38113678.796286,-42.045179,-32.15782,-5.09399678.829661,-26.864201,-11.768071,0.22356778.862985,-14.825127,-2.685043,-1.21584978.89651,-8.561223,5.778462,-0.91386978.929346,-3.702167,14.007927,1.35875878.962807,-1.291119,17.461835,4.52385678.996385,-1.958377,15.453328,6.13401479.029366,-3.661613,11.724974,6.19087879.062599,-9.340563,8.519622,4.46938679.097021,-27.061281,-5.652762,1.91782479.129813,-51.425697,-21.237028,-2.36061779.162856,-39.818641,-22.694101,-3.18455279.19637,-9.799817,-13.845564,-1.99129979.22873,-2.042626,-9.564728,1.29022179.262073,3.615224,-6.748298,3.64485379.296289,6.376436,-5.042219,2.89948279.329615,6.845716,-6.37868,0.4989179.362959,7.645408,-8.697098,-3.17153379.396344,3.634528,-5.933492,-7.82752379.429682,-6.765058,-16.007306,-10.76636179.46264,-30.140334,-35.1839,-8.78793279.496358,-40.292411,-27.945072,0.18106879.529614,-22.628557,-8.515133,0.79984279.563177,-12.316512,0.028582,-1.35441879.596293,-5.394479,6.588779,-1.16841279.629658,-2.541536,13.642798,1.65160979.662939,-2.09545,15.166163,4.15842879.696264,-1.536384,13.463675,6.80082379.728931,-2.412095,9.739362,6.57635979.763109,-9.428553,7.119114,4.68681779.796084,-31.081588,-9.315423,0.33250779.829613,-52.088764,-21.909224,-1.54192179.862594,-22.357255,-17.753938,-2.68519379.896269,-7.921499,-12.622083,-2.49409979.929627,-3.471866,-9.193614,-0.4778179.962315,2.500683,-5.770232,1.31012479.99641,4.505151,-4.673649,1.02176280.029343,6.685299,-6.557204,-0.95786580.062623,7.874212,-9.557545,-6.43210380.096372,3.022039,-8.316257,-11.59717980.128819,-7.96729,-17.269095,-15.38434280.162954,-29.833267,-33.466298,-14.61622580.196483,-31.11855,-25.249554,-3.83355380.22963,-23.389642,-11.310313,0.51207880.262556,-15.525605,-2.682799,0.51432380.296364,-8.717151,11.042303,0.50250180.333834,-3.803624,19.372626,3.34706480.362677,0.770362,18.930731,8.17559380.396191,-0.001197,17.641108,8.85781580.429321,-6.712085,11.619775,6.31403480.462984,-15.854072,5.729679,4.74368180.496286,-42.003578,-15.401551,-0.87705780.529674,-45.766649,-26.763791,-3.56269980.562954,-15.67435,-19.389835,-3.7970480.596304,-4.975927,-14.854008,-2.46102880.630839,2.838278,-8.594892,1.29246680.663044,8.895974,-6.523086,2.45803580.696309,12.198145,-8.528451,1.63619680.729593,8.966306,-11.17324,-1.09882880.762983,7.195431,-11.771363,-6.41115380.796314,-3.65877,-17.48069,-14.56534780.829027,-21.136318,-27.475493,-16.54362680.862768,-34.431046,-30.253614,-5.32160280.895796,-27.530561,-18.102906,0.97941380.928863,-18.09677,-4.962908,2.05489780.963047,-9.037686,8.306381,0.53153280.996097,-2.470455,18.563806,1.28603181.029607,-0.087541,20.065772,2.18299181.063089,-2.188079,18.115177,3.14504681.096312,-7.407625,13.028514,4.22905981.129908,-13.591919,7.893815,4.74278481.163128,-32.842287,-13.798576,5.94561481.196748,-44.887347,-30.892889,7.03770881.228776,-25.838249,-23.321255,-0.06599381.263001,-9.408202,-15.080418,-2.43947981.296253,0.12555,-10.04194,0.6160881.329598,4.392619,-6.931162,2.71018381.36293,7.377996,-5.673114,3.27613381.395519,7.767516,-7.508484,1.48071781.429395,7.589441,-10.120502,-3.1769281.462926,3.291097,-12.593501,-8.9561381.496251,-10.398688,-21.725163,-13.13805281.529574,-34.336921,-36.941007,-9.34340681.562585,-27.008008,-22.968846,-3.29139781.596252,-18.907835,-8.832376,-0.44054981.62958,-9.896187,1.879665,-0.1131381.662358,-6.551667,11.692651,0.70526781.696335,-3.179464,16.680101,2.40700781.729616,-2.638654,16.312129,3.82053481.762776,-4.658086,13.431652,5.59769481.796359,-8.933385,10.523491,4.98056681.82962,-17.913757,1.443456,3.99980681.862544,-47.075277,-27.712826,-1.24338381.896573,-37.558285,-27.789443,-2.7074981.929405,-12.0913,-18.41955,-4.29669881.963017,-3.72147,-12.850438,-2.22638881.995722,1.431634,-8.416219,0.36393282.029689,7.240025,-6.904376,1.49987182.06268,9.066118,-6.795735,1.39093182.096131,7.830965,-9.497239,-0.88349282.129697,4.431526,-10.860187,-6.08178982.16278,-5.330581,-18.377052,-11.91771482.196267,-22.108099,-32.475213,-15.13488882.229663,-25.440348,-24.341071,-10.73837882.262912,-22.083857,-11.822541,-5.84550282.296258,-12.545915,-0.876159,-2.98328282.329588,-8.024453,8.669265,-0.93990782.362916,-2.653768,15.693355,1.56391882.39626,-0.315298,16.25287,2.66154982.429009,-2.327846,13.030459,4.0487482.462982,-6.85245,10.178863,3.95745782.496289,-14.097413,4.168304,2.84321682.529323,-43.067539,-17.725656,-1.18801582.562691,-40.315007,-28.526884,-2.38022182.596291,-22.07847,-19.563571,-3.27912682.629642,-7.097565,-13.497794,-2.90247582.662551,1.455278,-7.518211,0.29629382.696309,5.440718,-4.455619,1.61659382.729435,6.907967,-3.551775,1.49268882.762887,8.672407,-7.010473,-1.35187482.796305,10.138459,-12.534393,-7.07287482.829622,3.333446,-17.299473,-12.92376382.863207,-13.245645,-25.421942,-14.57342782.896279,-25.462795,-37.203481,-11.91412282.928845,-27.943276,-27.319864,-5.33462182.963323,-20.607031,-9.063724,0.60545582.996306,-14.265761,1.586664,0.29135583.029126,-7.288958,13.7049,0.92688883.062736,-1.968254,18.523103,2.8625283.096147,-1.763991,17.153421,4.92489983.129644,-4.329619,13.663449,5.58706983.162308,-8.606265,10.197269,5.47738183.196287,-21.161009,-2.532707,5.23017183.229614,-44.690716,-21.838143,4.90394983.262614,-42.022882,-31.781618,1.92814983.296281,-22.193994,-22.245322,-1.4334383.329638,-3.936358,-13.083133,-1.68093983.362026,2.938838,-7.63628,0.40807683.396266,8.321794,-5.463015,1.2825983.429581,9.228032,-5.03339,1.49762783.462724,9.607376,-8.698445,-0.19737983.496244,8.071591,-14.477955,-4.58535983.528929,-1.877271,-20.544031,-10.64874283.562964,-19.136639,-31.08922,-9.81343583.596433,-27.319415,-32.477009,-4.98101583.629607,-27.850198,-22.788227,-1.83596983.662876,-17.025626,-4.399802,-0.52105783.696282,-9.754027,8.278248,-0.56250883.730101,-3.789109,16.209773,0.88992783.762687,-1.807687,17.647842,3.84911683.796241,-2.54378,14.154277,5.92346683.829635,-5.850441,9.369594,6.19671483.862784,-13.811146,2.46866,5.40615183.89626,-35.047426,-19.021265,2.55605183.929658,-34.887008,-26.917025,-1.02011683.962989,-21.326963,-19.559081,-4.12864983.996326,-4.96635,-14.573876,-3.33868484.029623,-1.192954,-10.936954,-0.90144984.06307,3.562699,-6.667341,1.30967584.096262,6.317476,-5.631812,3.35903584.129585,6.734232,-10.747207,1.58576684.162758,8.132945,-16.60064,-4.19883184.196244,3.09297,-19.150257,-12.1625384.229816,-8.468594,-22.495974,-13.35323984.262964,-18.689357,-31.837285,-10.8296684.296251,-26.992744,-28.38592,-7.75464784.329593,-22.364138,-9.335176,-1.79227484.362541,-13.502133,2.179699,-1.37297484.395742,-6.294431,13.167681,0.32337884.429591,-1.817563,16.922971,3.18963984.462974,-3.296634,14.730552,4.93148384.496278,-5.059727,11.763731,5.65710284.529613,-8.996235,8.80529,5.38175984.562399,-19.137088,2.678309,4.73320684.596267,-38.827556,-13.2856,0.66052484.628849,-47.008386,-24.937698,0.64930184.66264,-18.856657,-17.265354,-3.85106184.696374,-5.151758,-15.794963,-6.10707884.729624,-1.203429,-12.767985,-4.35416184.762963,6.994311,-10.988431,-1.10750784.796379,8.014427,-9.645236,1.88490384.829314,8.900314,-10.744364,2.83782984.862854,9.512952,-13.803215,0.28312484.896432,-4.814911,-19.465704,-6.57007484.92903,-17.86632,-28.444431,-9.87523784.9632,-32.216181,-35.632829,-8.15958184.996277,-32.596573,-16.876881,-3.33269885.02872,-20.118746,-2.518042,-3.55970685.062591,-10.394199,8.009639,-2.58358585.096364,-1.029244,18.112932,1.39512185.129632,1.329877,16.482422,2.29387785.162851,-3.00079,13.670332,3.35215285.196301,-6.490015,10.646497,4.4256985.229636,-12.96716,6.051561,4.10560485.262428,-30.514741,-12.986464,1.89732385.29643,-42.149181,-26.078725,-0.9767285.329372,-25.377648,-20.813389,-7.0745285.362315,-9.776473,-14.147095,-4.99059285.396278,-1.526208,-12.341203,-1.61898785.429653,1.705181,-7.855806,0.73863885.463113,5.823206,-4.501709,1.34903185.495859,6.755182,-5.848795,0.78936785.52965,7.742526,-10.378786,-2.18972585.562728,5.925262,-14.106242,-10.86991485.596605,-4.78618,-17.666248,-15.94161385.629014,-16.88586,-28.652734,-16.69835785.66308,-31.39105,-26.941716,-11.42404285.696276,-26.287328,-11.291757,-6.30101685.729672,-14.685211,-1.774466,-4.3001485.76296,-7.891122,7.995273,-1.39437385.796321,-1.052439,17.092068,2.86551385.829581,-0.713498,16.179246,4.08061485.86284,-3.656376,14.014511,5.11898685.895749,-7.693443,9.606329,4.0068485.929628,-16.696861,4.618281,1.91617885.962706,-41.459925,-14.386074,-4.27185785.996636,-39.523994,-25.071628,-6.30355986.0296,-16.599443,-16.161289,-4.84603786.06258,-4.371968,-12.614451,-2.50936386.09628,0.592436,-10.486678,0.47870886.129691,5.709477,-7.25484,2.2046986.16298,9.200348,-7.809416,1.8106886.196278,8.471736,-10.639614,-0.1970886.229604,5.860167,-12.69047,-5.41632686.26293,-2.890354,-18.592687,-10.29109586.296273,-14.155475,-22.282134,-11.91965986.328626,-25.886883,-32.430769,-10.83878886.362724,-29.74393,-22.936822,-5.00615586.396003,-21.996615,-8.819656,-2.39578486.429104,-12.987511,0.098615,-1.9821786.462792,-5.991853,13.114259,-0.00493886.496285,-1.769229,17.768454,2.43289586.529635,-0.376352,16.682645,4.17339286.562656,-4.604364,12.586768,5.10910986.596309,-9.494845,9.858328,4.23414786.629681,-18.916365,-1.188464,1.23455486.663016,-39.067284,-16.691174,-3.48099486.696268,-33.60382,-25.348019,-8.65729386.728693,-15.801547,-16.495292,-9.17520886.762673,-5.667427,-13.103485,-6.18938286.796294,0.814357,-9.511156,0.16011886.82964,6.506475,-8.274956,3.12993286.862818,8.295307,-8.259692,3.58065686.896304,7.04115,-11.924897,0.07167986.929705,4.945849,-12.146069,-6.11186786.962627,-2.742057,-13.93939,-10.41230686.996402,-9.873442,-21.390861,-10.69707687.029354,-24.526329,-29.260434,-10.66535287.063163,-26.077827,-21.864481,-8.1013787.096286,-18.883743,-8.825492,-5.04341687.129617,-9.61411,5.958782,-2.96053687.162374,-4.538222,14.486335,-0.5029587.196341,-2.360169,17.436097,1.89193687.229635,-2.350591,14.718581,4.39291887.263041,-5.025309,10.697825,4.87895987.296304,-10.979902,6.199109,4.10500587.329617,-29.471281,-13.302809,1.05692887.36315,-35.579257,-28.207546,-1.63170787.396277,-24.95371,-22.762189,-2.99525387.429591,-11.729313,-15.535631,-2.65406787.462915,-0.125999,-10.107483,-0.12749687.496139,4.126554,-6.627985,0.97462587.529648,6.868013,-4.751463,1.01652587.562938,8.74663,-9.081232,-3.07950287.59525,8.25625,-11.820895,-8.03133787.62961,3.452412,-13.33169,-13.10498187.662948,-5.153853,-15.345435,-14.33115587.696244,-18.376004,-30.74145,-13.87968387.729592,-24.944731,-27.059335,-9.41179387.762931,-23.60408,-15.365787,-3.73149787.79628,-12.803451,-2.406109,-1.51663187.829611,-6.264353,8.979475,-0.36078987.862716,-2.416734,14.757787,1.96196987.89667,-4.969792,16.267535,5.03967587.929601,-4.902902,13.142691,6.70490287.962469,-6.62604,8.607612,6.4163987.995748,-15.800948,0.080658,5.0209788.029036,-37.567563,-18.916963,1.40095788.063002,-31.692281,-24.988427,-2.45564188.09625,-20.263002,-19.812577,-5.00226488.128732,-5.874234,-13.107675,-3.11781188.162663,-0.783082,-10.334492,-0.64331588.196248,2.544379,-7.096368,1.00739688.229584,5.650368,-5.909999,1.55269588.262635,8.512289,-7.90848,0.08574588.296308,10.400783,-10.778033,-3.65742388.329616,4.83661,-12.264437,-8.71236288.363502,-9.672322,-22.235595,-13.02761688.39627,-24.862128,-35.35554,-11.81356288.429095,-29.010231,-28.418842,-5.50042688.462642,-21.776491,-9.435886,-1.52456288.496293,-13.471008,1.520522,-1.99324488.529632,-6.334087,11.586105,-0.43815588.562939,-3.895206,15.474278,2.36420988.596382,-4.087647,14.137817,5.74718788.628837,-4.094979,10.984541,7.46179688.662995,-6.032406,7.57747,6.83015388.696293,-15.336008,0.858352,4.60975188.729787,-35.500993,-15.068147,-0.70287388.762963,-42.294634,-25.67424,-2.72709388.796287,-16.778566,-17.988728,-1.8314888.829603,-5.996642,-14.095318,-1.2739188.862607,-0.113729,-10.721019,1.0018688.89636,5.999485,-9.60992,2.07958888.929634,9.225637,-9.740858,1.60821388.962711,9.210523,-12.213708,-0.37051688.995724,7.691348,-10.924833,-3.48802789.029702,-0.314101,-11.966348,-10.41230689.062074,-12.722045,-23.38186,-14.41495589.096313,-28.866124,-31.008563,-12.01438389.130436,-25.937911,-16.558591,-1.35142589.162699,-16.418974,-7.447281,-1.02520489.196312,-10.765014,1.443306,-1.07937589.229684,-6.268693,9.968615,0.15607889.262843,-4.080614,16.673367,4.17683489.295459,-2.702851,15.460511,6.87998489.329672,-2.972956,11.018509,7.34776889.362651,-12.583775,6.030461,4.67035689.396634,-31.230932,-11.579072,-0.46179889.429707,-45.521833,-23.442316,-6.76475989.462949,-21.165798,-17.323865,-6.57261889.496302,-6.690985,-12.945761,-4.58820289.52962,-1.941617,-11.710608,-2.58358589.563039,2.020329,-9.69402,-0.19244189.596438,5.85089,-7.225659,0.92748789.629638,5.837721,-8.062014,-0.28955989.662936,7.331307,-9.665438,-3.28496289.696187,5.593055,-11.580269,-7.50878489.729544,-4.231454,-18.580566,-9.97639689.763456,-17.449265,-32.238179,-14.08843589.797728,-30.836623,-28.793099,-13.08687489.829662,-24.830853,-13.219009,-6.18863489.863038,-16.253469,-1.794369,-3.85525189.896245,-9.932102,11.496319,-0.79340789.929645,-4.074927,19.280596,5.00525789.962954,-4.356705,18.273798,6.93325789.996262,-5.088908,14.420492,7.32128190.029602,-8.592348,9.799518,5.61385590.063011,-16.475838,2.94632,3.45585490.096268,-39.288756,-15.056325,-1.74154590.129485,-45.885765,-26.415871,-6.15376790.16272,-16.088263,-16.273371,-6.41339790.19636,-4.680382,-13.282907,-4.53867190.229657,-0.215785,-10.49431,-0.63822790.262582,6.643249,-8.54147,2.59660490.2963,8.941615,-9.320511,2.37797690.329734,8.753514,-11.314802,-0.0797690.362656,6.586834,-9.32081,-6.47894190.395713,-1.959724,-12.81632,-11.9527390.429606,-15.044952,-24.546531,-12.98302290.462716,-31.606985,-33.87617,-8.91946890.49641,-28.735486,-17.343019,-0.72965990.52962,-18.710307,-5.701097,-1.03418290.562585,-11.369572,5.18453,-1.17409990.596381,-4.043652,17.240065,1.55449190.629565,-2.14573,19.03997,4.43975790.662728,-2.37214,17.079198,6.49240990.696278,-6.52967,11.007885,6.51904590.72964,-14.573577,4.86983,5.43548190.763006,-34.848101,-12.035782,2.30210790.79551,-40.960417,-26.259045,-1.73391390.829641,-23.142581,-20.818776,-1.87936690.862534,-8.753215,-14.68132,-1.45542790.896283,-1.416969,-10.956557,-0.36812290.929632,4.908139,-8.041962,1.49792690.962791,6.914552,-6.982938,2.35807490.99555,6.456944,-8.863202,1.44525291.029727,7.542453,-11.451576,-3.17856691.062575,3.55387,-11.233097,-8.87053591.096287,-6.932958,-16.922672,-12.60412691.129654,-17.232732,-29.638282,-13.96617691.163431,-25.633238,-26.111647,-11.39246791.196281,-22.795709,-11.990291,-6.37404191.22976,-15.400055,-2.50637,-4.74921891.262665,-8.071741,9.797423,-1.08670791.296327,-5.155948,15.664175,3.05570991.329728,-3.271793,16.206032,7.23508791.36258,-2.318269,12.792078,8.8431591.39565,-7.861193,9.228331,7.01915291.429193,-20.169176,-2.062379,3.41664891.46257,-41.695762,-17.880387,-3.67298691.496356,-32.576671,-24.078598,-4.27679591.529648,-11.997474,-16.211419,-1.88146191.562944,-3.508379,-12.704537,-1.01113791.596273,3.275983,-8.780749,0.21039891.629693,6.372246,-6.892704,0.83231491.662754,5.250073,-6.862476,1.00619991.696808,4.797403,-11.742033,-0.27878591.729164,2.857282,-15.034627,-5.34524691.763101,-2.218307,-14.55547,-10.69677791.796528,-9.257511,-23.543624,-13.99131691.829621,-26.162974,-27.099889,-13.09779891.863113,-23.887204,-15.654149,-6.10812691.896368,-14.851464,-5.545169,-4.31315991.935116,-6.854246,9.554702,-1.59085491.962983,-1.581726,16.16473,2.21396791.996281,-1.371029,16.85234,3.87320892.029655,-2.835285,14.400889,4.8153692.063128,-6.434946,10.256528,4.08106292.096283,-13.164689,5.981378,2.53614992.129655,-36.011126,-10.395396,-2.3932492.162988,-42.580751,-26.229715,-3.68765192.195662,-21.582254,-18.667958,-2.0620892.229632,-6.494803,-13.27737,-0.66860592.26276,-0.287165,-10.50299,2.58134192.296371,4.764781,-7.465387,4.72976592.329634,5.768586,-6.237717,4.40728492.363024,5.522274,-7.643612,2.66169992.396301,6.191776,-11.754005,-2.34640192.429625,-0.46958,-14.842635,-9.10367892.462801,-13.770892,-21.619814,-12.60427692.496854,-28.167741,-29.673897,-7.78981392.529825,-27.909307,-19.372327,-3.56823692.562338,-18.673494,-7.418699,-3.54264792.596283,-9.42571,4.232052,-2.84800592.629614,-4.905146,11.610647,-0.52090792.663044,-3.621958,16.040377,2.8542992.695625,-2.001923,15.28887,5.79971292.729708,-3.491469,10.729998,7.10235492.763103,-9.187329,7.997218,5.95519192.795352,-26.94007,-8.065605,4.04395192.829546,-42.322617,-25.056215,-1.03448292.862785,-25.951828,-20.274075,-2.35358492.896275,-7.625056,-14.512373,-1.98561292.929701,-1.321347,-11.250456,0.00793192.962988,3.900294,-8.637241,2.75582592.996499,5.809887,-7.221918,3.33958293.028822,5.855977,-9.393686,1.88669893.062916,7.922696,-10.556113,-3.47725393.096364,4.1701,-10.223157,-9.95245393.129296,-6.857987,-16.372136,-14.73623993.162968,-30.201089,-33.279843,-14.41555493.196332,-29.629303,-24.08578,-7.37590193.229618,-20.927416,-9.253022,-3.29154693.262022,-12.619689,-0.963102,-2.40625993.296302,-5.454186,12.373975,0.29449793.329643,-3.094915,17.937101,2.68953393.363015,-2.05789,17.9588,4.47716793.396272,-3.783123,12.965663,5.62507893.429613,-9.480479,10.402579,5.28045193.463016,-22.601921,-1.939522,4.72108593.496364,-49.058195,-24.704554,2.87209793.529624,-33.321294,-24.590975,1.51782893.562685,-11.961709,-16.97789,-0.08335193.596317,-3.542647,-12.760653,-0.07751593.629769,3.618366,-8.656695,1.78479193.662599,7.479903,-7.313799,3.35005793.6963,8.704132,-9.025116,2.80281293.729699,7.869423,-12.434431,-0.04294893.762716,4.135084,-11.010429,-3.95401693.7963,-3.58335,-16.251972,-9.05145393.829741,-25.009377,-35.119105,-12.21221193.862678,-33.512538,-29.89911,-6.57531193.896435,-26.742092,-12.870191,-0.76841793.928823,-16.922522,-3.650989,-1.70278793.962845,-7.493071,9.958439,-0.93556893.996454,-3.263413,17.045379,1.87188494.029,-1.430587,17.776535,4.93597394.062958,-2.249433,13.970965,7.20755394.09637,-5.343001,9.621593,6.54762794.137877,-18.198827,0.599619,4.2917694.163456,-43.438953,-16.985372,-0.796194.196282,-47.11987,-29.300388,-0.44922894.229641,-21.999758,-18.998369,-1.26867394.262636,-5.734018,-12.65261,-2.04891194.296329,1.560926,-8.226471,0.54844194.329609,4.977424,-6.333488,2.02347294.362945,6.238764,-5.818118,1.63065994.395666,7.434112,-8.4032,-2.15560794.429676,8.073686,-9.171467,-6.4416894.462525,1.628115,-12.693762,-12.0157394.496389,-11.621421,-22.570945,-14.11297694.529681,-27.374184,-29.94101,-8.14850794.562768,-26.24872,-21.008373,-3.52678594.596403,-19.467201,-8.381202,-2.55365794.629735,-10.169585,3.519752,-1.82145494.662997,-5.063768,12.848493,0.54948994.69638,-2.467762,16.597199,3.29723394.729615,-2.49799,15.020411,5.37053694.762955,-4.561117,11.000552,5.24274194.796299,-8.89358,8.596688,4.01402294.829377,-20.100938,0.256638,2.73337894.863255,-53.705357,-23.639096,-2.93120694.896286,-36.44524,-23.569363,-2.86162294.929609,-11.410424,-15.801248,-2.94482494.962784,-1.088952,-10.111075,-0.64795494.996281,4.912479,-8.229764,2.17236795.029636,8.818758,-7.417202,3.79120495.062599,7.990634,-7.397749,3.31025295.096656,8.000211,-10.814696,1.52216895.129645,3.923039,-14.215182,-1.31685895.162981,-6.888663,-17.544139,-7.17597895.196399,-26.388037,-34.419973,-15.64068195.228975,-34.830892,-25.628749,-6.75473395.262751,-29.216289,-13.613468,1.11139895.296297,-17.613274,-2.315276,-0.58884595.32964,-9.854886,8.659239,-1.73151995.362802,-4.285475,17.312043,-0.22326795.396417,-1.810231,18.463845,3.13950995.428798,-1.68049,15.825191,5.19395795.462978,-4.046794,10.729549,5.22702895.496425,-10.448071,8.278397,4.66407195.52878,-38.171073,-14.384578,1.20103495.562786,-48.291275,-27.094801,2.8333495.596299,-25.258682,-21.3533,1.55568895.62964,-6.061587,-13.209731,-0.45865695.662179,-0.647804,-10.067379,1.59998295.696463,4.264674,-7.777991,3.54534195.728854,7.389967,-7.279232,3.52528995.763102,8.518724,-8.306979,0.65678395.796366,8.185619,-9.675464,-2.72963795.829268,2.793086,-9.851743,-7.26471695.863095,-12.449246,-23.249576,-14.17777195.896287,-29.944003,-34.453792,-11.75714795.929654,-28.837393,-27.054547,-3.94354195.962663,-20.421174,-8.990997,0.66830595.996319,-13.722857,0.238381,-0.45296996.029679,-8.394071,9.779765,-0.04219996.062687,-5.894585,16.407451,2.48392396.095733,-3.446127,16.439774,8.41337596.129854,-2.314228,13.384664,9.37902196.162884,-4.708366,8.788381,7.12689596.196413,-13.762363,3.685406,5.69181996.229379,-35.450414,-14.606049,1.94221696.262851,-51.24807,-24.527975,3.06753196.29627,-18.093179,-19.758705,1.1230796.329615,-7.43486,-14.321728,-0.61114296.362194,-0.970734,-9.819869,-0.89112496.396325,5.057932,-7.979411,-0.27998296.429243,7.965344,-6.769997,-0.5366296.462777,9.069111,-6.984285,-1.88146196.496331,10.583198,-7.639721,-4.19164996.52941,5.251121,-7.833808,-8.04734996.562575,-7.090083,-18.515771,-13.05754496.596264,-32.099759,-35.035454,-19.60457396.629585,-35.145891,-19.60592,-5.52272396.662982,-20.202396,-7.286414,-2.2338796.696252,-13.296674,2.347599,-2.08976496.729582,-6.797232,10.912263,-0.44773296.762502,-2.801466,16.360164,2.8288596.796249,-1.473983,15.682282,4.77271296.829589,-0.93452,11.780192,4.75041596.862645,-6.577406,8.338853,4.24731696.896278,-19.590656,-2.634913,2.95230696.929602,-44.142425,-18.850223,-1.03837296.963626,-34.518139,-21.616672,-1.3577196.996281,-11.139122,-12.97958,-1.62766697.029601,-2.122685,-9.681899,-0.24481697.062935,1.463209,-7.682519,1.70907297.096304,5.120931,-5.450146,1.94700497.129637,6.389754,-6.438986,-0.05701497.162829,8.040016,-9.031999,-3.59023497.196296,5.649171,-11.352812,-9.54213297.229615,-3.579609,-15.153593,-11.95542497.26261,-16.525968,-25.317192,-10.82202897.295788,-28.856248,-35.260517,-5.59036197.329711,-28.819585,-19.964165,2.2757797.362157,-19.105214,-7.95891,1.30234397.396567,-11.616782,2.552011,-0.32936497.428626,-4.839303,13.697866,0.18525897.463037,-4.230705,17.013356,3.25144297.496277,-2.33009,16.189272,7.46987797.529594,-2.373487,10.346014,6.41459597.562919,-7.701075,8.837015,5.67326397.596314,-17.193077,-0.906387,5.60083697.629596,-39.81939,-21.693439,3.75409397.662922,-33.640932,-26.480816,7.1916997.696279,-9.826753,-18.047089,3.34197697.729596,-2.315425,-12.644979,0.94424797.762736,4.109345,-8.900014,0.17149197.79584,7.897855,-7.893217,0.48678997.829704,9.570415,-8.343193,-0.20979997.862717,9.655861,-10.063488,-3.45525697.896286,3.634827,-12.219095,-7.02513897.929833,-10.699321,-21.704812,-11.27320297.963011,-25.245813,-36.641871,-11.41790697.996751,-32.126994,-26.790427,-4.09318498.02933,-24.822024,-9.120438,-0.89785898.062754,-15.508845,-0.019454,-1.76728398.096074,-6.937297,12.154898,-0.07661798.129612,-3.084291,17.301119,2.32485398.162784,-2.306297,17.023831,3.91750398.196217,-2.619799,12.399714,5.24887698.229672,-5.895633,9.764202,4.73694798.262298,-11.699086,6.600601,3.81245398.296304,-33.379356,-12.548459,0.16625398.329643,-45.93395,-28.935708,-2.47958498.363032,-21.867922,-19.329978,-3.68630498.396306,-5.926908,-13.874295,-3.26221698.429639,1.410085,-8.686623,0.58285998.463004,6.044079,-6.569475,2.47404798.496294,8.651308,-5.693764,2.93823998.529704,10.046728,-8.449439,0.9051998.566599,8.179334,-9.817774,-1.6008898.596274,0.537667,-11.17324,-4.36508598.629033,-6.937746,-23.023316,-10.50239198.662727,-32.642663,-37.534192,-12.53663798.69629,-30.294766,-25.672445,-3.36756598.729625,-20.644142,-9.363309,-0.01631198.762948,-11.317646,4.235644,-1.23305898.796275,-5.181537,12.628219,0.12001498.829624,-3.308905,17.388959,2.64478998.863035,-2.502778,16.75597,4.89122998.896274,-2.730684,12.681043,5.59679698.92969,-7.466884,9.329938,5.029298.963138,-20.365358,-3.803325,3.64500398.996281,-44.800255,-27.298465,-2.47733999.029239,-31.887116,-28.691192,-3.13621799.062408,-14.088435,-17.026973,-2.01404499.09634,-0.565052,-10.146989,0.03082699.129663,4.567103,-6.645194,1.67375699.162878,8.32344,-5.510602,3.19607499.196349,7.005086,-5.595299,2.70599399.229617,6.35773,-10.611181,-1.23769799.262935,5.020371,-14.356445,-6.00307699.296253,-4.307023,-17.031163,-11.63563799.329588,-15.145662,-26.755261,-14.98225299.363082,-23.994199,-26.271914,-12.27790499.396252,-26.965659,-16.626678,-4.80787899.429585,-16.683991,-3.615074,-0.94499599.462674,-9.926266,6.951513,-0.41959999.495875,-4.718092,14.015558,0.97851599.529923,-2.169972,15.970643,2.82825299.562565,-0.454017,14.040249,5.2096799.595582,-1.793471,10.394349,5.58347899.629606,-9.337271,6.484927,5.3311899.663135,-30.848893,-11.451875,1.78733599.696353,-35.747306,-25.72452,0.43650899.729618,-29.27884,-22.713704,2.6024499.76294,-7.492173,-13.327949,0.10729499.79638,0.382637,-9.221747,-0.24197399.82967,4.201824,-7.24631,0.57492899.862764,5.404804,-5.144725,1.21689699.896616,7.168346,-7.498608,0.82528199.929189,10.406769,-12.905956,-1.80768799.963068,5.892341,-11.775553,-5.51673799.996407,-8.588907,-20.617207,-13.386011100.030517,-27.415486,-38.581543,-16.965619100.062971,-34.505269,-26.09354,-8.225573100.096297,-21.422136,-8.261637,-0.739087100.12961,-11.699235,0.871521,-0.867181100.163063,-5.241543,11.447835,0.688806100.196144,-0.366775,16.862665,4.476868100.229634,-0.64975,17.543092,6.909913100.262716,-0.508487,13.057544,5.658149100.296338,-5.88845,11.133136,4.100366100.329629,-17.040441,4.816258,1.342148100.363275,-42.495903,-12.403754,-5.028602100.396292,-49.706149,-25.461598,-5.624031100.429622,-27.372389,-19.509699,-5.72908100.463086,-7.12899,-13.648784,-3.682264100.496472,-0.841293,-10.162552,1.265081100.529039,5.604877,-7.73235,4.164563100.563051,8.954035,-7.229251,3.593675100.596367,8.841205,-8.774015,0.510582100.628979,7.882891,-9.541234,-3.853605100.66297,-0.83815,-13.715524,-11.271406100.696624,-13.068169,-21.894858,-13.467117100.731549,-27.009205,-34.125326,-12.955937100.762353,-34.162138,