time_tick,gyr_X_value,gyr_Y_value,gyr_Z_value-0.002648,0.031955,-0.080671,-0.3803770.027321,-0.030164,0.403096,-0.3868520.05732,-0.230343,0.288761,-0.656890.097298,-0.394735,0.628299,-0.6222520.127266,-0.853469,1.340305,-0.4586350.167244,0.273604,1.331964,-1.0120250.197243,0.568953,0.404475,-1.1688570.227211,0.752242,-0.022212,-0.9096110.257179,1.588347,0.915085,-0.5863230.297157,1.149542,0.123631,-1.0238390.327156,0.227429,-0.07185,-1.5431370.367134,-0.806907,-0.018478,-0.8369970.397102,-2.144419,-0.451336,-0.7751440.427101,-1.909712,-0.410196,-1.1138220.467079,-0.81968,-0.476927,-1.1897650.497047,-0.665507,-0.34621,-1.1083970.527016,-1.171136,-0.199686,-0.975490.566994,-0.872775,0.225004,-0.5195170.596992,-0.546809,0.179149,-0.6980490.626961,-0.429146,-0.085347,-0.9036570.666939,-0.226201,0.092486,-0.7205110.696937,0.32113,-0.120803,-0.5054140.726906,0.751899,0.065814,-0.2862630.766884,0.356957,-1.027485,-0.5436290.796883,0.401733,-1.011239,-0.6773330.826851,0.374215,-0.593382,-0.8595090.866829,-0.273636,-0.520922,-0.516190.896797,0.624681,-0.067557,-0.4584280.926796,0.004286,-0.539484,-0.5922590.966729,-0.454043,-0.714886,-0.9478760.996698,0.360459,-0.621534,-0.2682831.026697,1.962394,-0.738589,-0.3946881.066674,4.15173,-0.74113,-0.7908071.096643,2.844075,-2.952528,-1.1510161.126611,2.614599,-1.961777,-0.6035521.166589,4.584498,-1.811004,-0.275331.196588,6.560099,-3.151146,-1.3194621.226556,3.118789,-3.334996,-1.6254141.266535,2.571738,-4.481652,-0.8713961.296533,4.572031,-1.126825,-1.8419941.326501,2.119658,1.951827,-1.4023661.36648,-0.636388,-1.771469,-0.659491.396478,-1.997339,-0.277599,1.0392911.426446,-3.125804,1.771122,2.7112981.466425,-0.973701,5.837958,4.3585541.496393,-1.790734,5.386468,4.7909981.526391,0.637707,6.682208,4.6153071.56637,2.276971,7.78959,4.2064651.596338,3.133851,5.725347,1.9099411.626337,2.729585,3.642336,0.8760251.666315,0.281904,4.198889,-3.3994111.696283,-1.082901,3.001693,-6.3407811.72625,-2.747319,1.572128,-7.7214041.766229,-5.323646,-0.945891,-7.8312171.796228,-4.274287,-2.213066,-6.092071.826195,-1.469332,-2.089723,-3.9837221.866174,-2.644037,-4.91232,-4.1886261.896173,-1.895051,-4.305087,-2.2773041.92614,-1.771174,-2.911041,0.4038691.966102,-0.821235,-0.277173,-0.3549771.99607,-0.914796,-3.533895,2.1904652.026069,-1.152244,-4.620287,3.3711212.066047,-3.410803,-2.137705,1.7181162.096015,-2.953456,-1.898286,1.6273892.126014,-1.483987,0.589143,3.5910492.165992,-1.699405,3.439635,4.4231892.19596,-0.822657,4.361386,4.6439682.225959,0.549646,6.567247,3.8411822.265937,2.994941,7.365076,5.4462062.295905,2.325301,4.045969,5.199552.325873,0.462421,1.401833,3.3064442.365851,-1.077015,2.953934,-1.1212092.39585,-0.809405,4.401109,-3.274342.425818,-1.478165,3.209979,-3.9891942.465796,-1.678402,-0.298723,-5.2119752.495795,-1.27763,-1.722445,-5.252612.525763,-1.579391,-3.190904,-5.9514232.565741,-1.665131,-5.021545,-7.8743342.59571,-3.511256,-4.118292,-7.9337932.625708,-3.960492,-0.197774,-5.7504862.665686,-0.555852,0.284766,0.7444242.695655,-2.669031,-1.078528,0.1732662.725654,-3.093055,-3.226412,0.0828862.765632,0.149004,-3.886187,2.2970732.7956,-1.951343,-2.364443,2.6386652.825599,-3.936332,-0.776727,4.0159332.865577,-4.410308,-0.973708,5.7021822.895545,-7.668608,0.563228,5.022872.925513,-0.120196,7.241596,6.0766692.965436,2.452155,8.377393,7.8768622.995435,3.265347,7.076385,6.6266123.025403,3.441503,6.662398,5.214323.065381,1.074373,5.794113,0.5874963.09538,-1.528131,2.72965,-2.6221113.125348,-2.675334,2.120266,-7.0282983.165326,-3.971338,3.199718,-9.5294813.195295,-5.705463,2.47499,-8.9075073.225293,-7.223028,-3.624046,-8.3329213.265271,-6.801627,-8.023843,-9.6026143.29524,-2.12915,3.086541,-2.6918513.325238,-0.613721,-0.249065,-1.4806153.365216,-3.52181,-1.503475,0.7891773.395185,-0.740904,-5.821555,3.0738273.425183,-4.341512,-8.235827,2.5731783.465162,-3.37584,-0.110782,8.1337473.49513,-4.327572,2.340744,9.0774873.525098,-4.176241,6.158448,8.8731473.565076,2.390637,7.186949,12.5880193.595075,1.193552,2.312176,11.9303243.625043,0.659094,1.258549,8.7774083.665021,2.056842,5.898134,4.9578453.69502,-0.951446,2.406173,-0.1343313.724988,-3.310365,1.71518,-4.1737223.764966,-3.145429,2.404309,-10.599053.794934,-4.738107,2.295362,-11.6870163.824933,-3.368227,1.56551,-10.7056733.864911,-2.530641,-0.55535,-8.5866943.89488,-3.812514,-2.855176,-10.5762653.924878,-2.802843,-4.99547,-5.7658043.96483,-1.351383,2.582937,0.8959053.994799,0.84695,1.450917,0.3919194.024797,-0.779604,-7.223327,0.4125064.064745,-3.264065,-8.460823,0.4622044.094744,-1.282165,-4.612942,0.6368284.124712,-3.772452,-0.01533,3.6733244.16469,-5.190143,3.321046,7.4301184.194689,-3.394902,6.008175,7.9344664.224657,-3.098172,5.641391,8.1222344.264635,-1.295391,3.340122,9.875614.294634,-1.119119,3.223579,8.7640274.324602,1.172467,5.679748,7.6492054.36458,0.134506,3.440036,1.9916664.394548,-2.715258,-0.528669,-3.5703594.424547,-2.21046,1.026067,-9.0333724.464525,-2.018532,2.779566,-9.9360984.494493,-1.324924,0.936822,-8.8626784.524492,-1.688469,-1.719837,-9.2962564.56447,-4.198304,-4.12432,-10.3790294.594438,-5.850269,-6.848922,-2.7920854.624437,-3.447216,-3.674979,-0.2883314.664385,-0.228911,-1.519247,-1.0273734.694384,0.612864,-4.229797,0.937064.724352,1.382415,-4.770062,1.593914.76433,-2.096741,-4.3905,-0.6296664.794329,-2.838311,-2.108982,2.4816684.824297,-0.650282,1.447022,4.484554.864275,-2.53641,5.643858,5.8982824.894274,-1.370538,5.359645,7.9643644.934252,-1.437906,4.057885,10.6657024.964195,-1.537858,3.465208,8.8125414.994163,0.680173,5.289029,8.3993975.024162,1.497956,5.176151,6.344495.06414,-2.743719,-0.885266,-3.0832625.094108,-3.757498,-0.053348,-7.5361745.124107,-2.68546,3.071096,-8.9777745.164085,-2.078527,1.509743,-9.8195975.194053,-3.027365,-3.517564,-11.4727365.234031,-5.514309,-3.896807,-6.7584715.264,-3.504036,-0.110007,0.6549185.293998,-0.750666,-0.105729,-1.2366595.333976,-1.163188,-5.228249,-0.3640365.363945,0.59428,-5.526841,0.4903315.393944,-0.435029,-4.123761,0.0887345.433922,-2.43378,-4.601434,-0.9568895.46389,-2.893119,-3.108741,2.7369215.493889,-2.397009,1.737355,3.9331225.523857,-0.868333,6.56159,5.7360355.563835,-0.067851,8.046329,8.1450435.593803,2.507914,6.595486,11.2061825.633781,-1.309482,-1.816173,9.3062645.66378,-0.122081,1.924289,7.3591445.693748,2.235542,7.057321,4.2751085.733726,-1.384285,0.429939,-5.3859465.763725,-5.16059,-0.390743,-8.3280135.793693,-2.160639,3.398317,-8.9020645.833671,-1.759071,0.473121,-9.8285445.86364,-3.890283,-5.960647,-12.2486135.893638,-4.389436,-4.641922,-7.9666085.933616,-1.211282,1.367861,0.5884845.963585,-2.045861,-1.488161,-1.0356685.993535,-3.725542,-6.475372,-0.6317046.033513,0.843538,-5.384534,1.3390926.063482,1.871217,-2.585349,0.2340426.09348,-1.056474,-3.003239,-0.9434146.133428,-1.642656,0.326096,3.6824316.163427,-0.477644,2.632624,5.396336.193395,-0.669411,4.008855,5.2580286.233373,0.826411,5.019859,7.8939296.263372,-0.157249,3.667038,10.9281976.29334,-1.508883,2.118928,9.0624566.333318,-0.137459,5.432103,8.184196.363317,-1.323682,4.690032,4.3104166.393285,-2.34839,0.075492,-0.577426.433263,-2.533672,0.480649,-5.3602676.463231,-1.975699,2.654037,-7.2751066.49323,-2.40285,-0.228236,-9.1413226.533208,-3.649369,-5.041328,-11.7480226.563177,-2.879557,-7.370333,-11.9119316.593175,-7.561975,-6.987783,-5.4237156.633153,-1.996227,-1.697272,-0.1277036.663122,1.005799,-2.490972,-1.3725496.69312,1.327198,-3.309823,-0.7985986.733068,-0.797323,-4.974902,-1.4634366.763067,-2.162591,-2.94312,-1.1670696.793035,-2.689745,-0.993237,2.0554266.833013,-1.732966,0.22874,3.7369946.863012,-1.884163,3.657386,5.0625896.89298,-1.882339,4.492176,6.9006166.932958,-2.911134,7.073866,9.705166.962957,-0.903314,5.799746,10.8065076.99291,1.48786,5.977292,8.7375077.032888,-2.459623,3.260919,5.6415517.062856,-3.308807,-1.405341,0.0800567.092855,-1.007206,-0.074774,-4.9912367.132833,-1.009799,3.55725,-7.0664167.162801,-2.359427,1.144416,-7.9678237.1928,-2.341245,-4.11129,-9.2928777.232778,-0.950915,-5.931637,-12.737667.262746,-6.026109,-3.596181,-4.8218667.292745,-1.810334,-2.254846,-0.311237.332693,2.036186,0.146616,-1.4694637.362692,-1.628892,-3.741001,-1.6440617.39266,-1.141466,-5.125421,-0.9206647.432638,-1.899835,-3.139222,0.2260217.462637,-3.21773,-3.609863,2.0768647.492605,-2.367382,0.049059,4.8597327.532583,-2.823115,2.787472,5.8828437.562582,-1.84089,4.571921,7.1451257.59255,-1.647026,5.69312,11.4962347.632528,2.652389,3.958641,9.7424317.662496,1.845721,2.0785,7.9742887.692495,-0.287504,3.941039,4.7508147.732473,-1.195239,1.710512,-5.1091537.762441,-4.653451,2.302052,-9.8944537.79244,-4.896076,4.381461,-11.9086857.832418,-2.962055,2.608333,-10.0597217.862386,-3.136308,-2.330696,-11.250617.892385,-4.695457,-4.33029,-10.9358037.932333,-4.546324,-2.423552,-0.1412017.962331,-2.832563,-4.414484,-1.9107527.992256,-2.091072,-4.024102,-1.3257788.032235,-1.473794,-3.854538,0.2418128.062234,-0.781595,-2.776796,0.1637778.092201,-3.222141,-2.523402,0.685288.13218,-4.984062,0.389274,5.1031598.162179,-2.185722,3.021087,7.2663758.192146,-2.233087,4.343009,6.559148.232125,0.230899,5.804564,9.6375078.262093,0.390089,3.184034,11.557058.292092,0.076126,1.770338,9.7688198.33207,0.597474,3.279717,5.8303338.362038,-1.650451,3.624281,1.496718.392037,-2.809824,1.450698,-2.3707688.432015,-2.38062,1.004287,-7.1805168.461983,-2.463931,0.929769,-8.1917738.491982,-2.031119,-0.083577,-8.8351298.53193,-0.859306,-1.791283,-11.12868.561928,-2.187733,-3.19823,-12.374728.591897,-6.231119,-2.225185,-1.8933628.631875,-3.880767,-2.747937,0.581818.661873,-0.935856,-3.222412,-1.4864488.691842,-0.591326,-4.968642,0.3476588.73182,0.213171,-6.993198,1.1231548.761818,0.536203,-4.714406,0.1571048.791786,-2.391417,-1.356564,0.8906148.831765,-1.579237,1.114219,4.6799258.861733,-0.473522,4.608026,5.5767298.891731,-0.810209,4.582025,5.6353238.93171,0.717934,4.116952,8.3194238.961678,-0.986662,1.832661,9.3667738.991631,-0.976608,1.568657,7.992689.031609,0.46583,4.476836,5.0018329.061577,-0.771113,4.060374,1.0149699.091576,-3.029277,1.281098,-2.6328189.131554,-3.873223,0.842972,-6.8030339.161522,-2.983491,0.574243,-7.6923629.19149,-2.362178,-1.323728,-8.2992099.231469,-1.942065,-4.404151,-10.7958459.261467,-2.64853,-6.163283,-9.0304849.291436,-4.887401,-1.8194,-0.40099.331414,-2.239892,-1.347774,-0.3199039.361412,-2.411052,-3.440507,-0.4600979.391381,-1.426292,-3.50547,1.1680129.431359,-1.613885,-3.110258,0.7746259.461327,-0.345609,-3.899431,-0.8563829.491326,-1.883962,1.50302,4.4077699.531304,-0.708274,3.955374,7.0538599.561272,1.765642,4.986815,7.824979.591271,0.38544,4.176584,9.1826949.631249,-1.258946,-1.118405,10.3301069.661217,1.365756,3.759877,8.3921059.691216,2.207967,5.84383,5.5728859.731194,-2.013667,0.746425,-2.6280479.761162,-3.620684,1.020765,-7.5236369.79113,-3.814961,2.737008,-9.7242219.831108,-2.765311,1.395344,-9.6175989.861107,-2.506803,-0.062924,-9.1878499.891075,-2.696636,-2.09959,-8.7235549.931053,-3.876051,-2.818113,-1.7409129.961052,-3.389975,-4.165701,-0.646589.991001,-1.407169,-2.57018,-1.12817910.030979,1.970872,-3.146858,0.74756210.060977,0.806772,-7.197029,0.4120510.090946,-1.774315,-6.865381,0.44307510.130924,-2.368347,-1.273246,3.08401510.160892,-2.520526,1.139477,5.61509510.190891,-3.193791,0.841623,6.00612510.230869,-1.87874,3.593043,5.6763810.260837,-0.218079,5.938721,10.38566610.290836,-0.363252,2.838245,10.93020810.330814,0.965585,0.650324,7.39891510.360782,-1.742292,1.91763,2.25452910.39075,-1.406599,3.659671,-3.16308110.430728,-3.130105,0.70582,-8.87867810.460727,-3.462877,0.228497,-10.64181110.500705,-1.305311,0.227054,-9.88361810.530673,-1.279337,-0.834795,-12.44650710.560672,-3.162591,-4.083493,-9.09653110.59064,-5.129758,-4.184368,-2.39787910.630618,0.070036,-0.334155,-1.99257210.660617,-1.255145,-2.122566,-1.62730910.690585,0.244985,-6.31346,-0.2069210.730564,-0.808622,-7.856625,-0.46580210.760532,-2.350728,-3.815021,-0.31896110.80051,-2.911589,1.371864,5.53018910.830509,-4.0543,2.678534,6.07608510.860477,-4.360592,3.492166,6.24556210.890476,-2.050965,5.198151,5.76772510.930454,0.681706,4.009615,11.6313910.960422,1.500639,1.833743,10.28525311.000366,1.249629,1.321686,5.39549911.030334,-1.632116,1.434162,0.72472211.060333,-2.334358,2.472657,-3.68132911.100311,-1.886377,2.638123,-8.11922311.130279,-3.033002,1.875723,-9.3882411.160278,-2.849501,1.164493,-10.81434811.200256,-2.787166,-2.344032,-11.04657711.230224,-1.865619,-3.850347,-9.08199711.260223,-3.871744,-2.467681,-4.31851411.300201,-1.182527,-2.192504,1.57817411.330169,-1.392688,-2.805109,-0.07475911.360138,-3.751269,-5.876984,1.18904411.400116,0.625934,-4.732548,1.64475611.430114,-1.762747,-2.77996,0.89991311.460083,-4.533371,-3.972082,2.4708711.500061,-3.682592,2.663495,4.74825911.53006,-2.711779,5.307912,4.92789211.560028,-2.099343,6.121968,4.40320211.600006,1.384958,6.711987,7.42270111.630005,1.568053,5.053022,8.38450811.659973,2.687344,4.449537,6.93107311.699951,0.770339,3.390837,2.30531211.729919,-0.805947,2.477683,-1.61195311.759918,-1.910695,2.251804,-4.07669511.799896,-2.643928,1.408208,-6.89727711.829864,-3.057054,0.321692,-8.02606711.859863,-2.578342,-0.586525,-8.69499711.899841,-3.261233,-3.004502,-11.28540911.929809,-3.205805,-2.516304,-8.08507511.959808,-2.929094,2.102923,1.84478411.999711,-2.69488,-0.766167,-0.01986312.029709,-2.501623,-5.305438,-1.02164612.059678,0.275786,-6.280862,0.20013612.099656,0.059622,-6.702091,-0.35551912.129654,-3.66013,-5.864422,-0.4211712.159623,-4.034599,-1.488239,3.44046312.199601,-1.937273,2.876955,6.00953212.229599,-1.852568,4.052687,6.5410712.259568,-0.480443,6.105404,5.78743112.299546,-1.093542,3.163422,10.79208712.329514,-0.220203,2.468722,9.19243112.359513,0.556496,3.060018,7.13781612.399491,-1.606683,2.198422,2.76794712.429459,-2.901299,0.855319,-0.81272612.459458,-1.787794,1.6193,-4.40224612.499436,-1.700399,1.476556,-7.15048712.529404,-2.064068,-0.308468,-7.01991412.559403,-1.526162,-2.129856,-7.7271412.599381,-0.140652,-4.22682,-10.40501912.629349,-3.613226,-3.69384,-4.14010412.659318,-4.246432,-2.563331,0.78832412.699296,-0.06321,-2.151988,-1.60062912.729294,-0.358414,-5.448959,-1.54765612.759263,0.289083,-6.749984,-1.78044512.799241,0.167584,-4.841105,-1.5903212.829239,-1.889387,-1.98732,0.36454612.859208,-1.102478,1.660638,4.19532312.899186,-1.421416,2.923986,5.58818312.929184,-0.688395,3.94017,5.59571712.959153,2.164668,5.740039,5.66136912.999086,-1.212285,1.138455,10.37802713.029054,0.039016,1.006162,8.43926313.059053,0.416964,1.816778,6.69988813.099031,-1.70184,2.303668,1.22420713.128999,-2.011911,1.310964,-2.37734513.158998,-1.989125,0.000864,-4.96395913.198976,-1.695062,0.75896,-7.09074613.228944,-1.730655,0.646127,-7.81611113.258943,-1.375628,-1.096691,-8.27757713.298921,-1.929414,-4.892744,-11.43119813.328889,-6.875735,-5.732234,-4.10783513.388856,1.786701,0.494153,-1.15921113.418825,-0.027726,-2.983618,-1.293813.458803,-0.267674,-7.443303,-1.11829913.498781,-0.421287,-4.856775,-0.42639513.528779,-1.769583,-0.931201,0.38584613.558748,-2.286863,2.065422,2.8665813.598726,-1.842163,4.145339,4.90190413.628724,-0.401013,4.657996,5.15461513.658693,1.440471,6.791676,3.43242813.698671,-1.192143,1.236752,10.46571413.728669,-2.208128,0.789336,8.31787413.758638,0.237293,3.059934,6.8206513.798616,0.808244,4.366314,2.78740813.828584,-0.744294,2.884278,-0.66919513.858583,-2.258454,0.329372,-4.1702513.898561,-1.994403,-0.303952,-6.66299713.928529,-0.72899,0.396282,-7.25232213.958528,-1.419738,0.104323,-8.63405513.998465,-2.760737,-2.953489,-13.19471614.028433,-4.487907,-1.471322,-5.01162714.058432,-3.712371,-0.455287,2.53280614.09841,-2.539702,-3.459365,-2.15845814.128378,-2.273235,-6.254974,-1.87661414.158347,-0.634241,-6.123963,-0.57680114.198325,0.056383,-1.80182,0.57744114.228323,-2.701994,-0.910427,1.51513614.258292,-1.513145,0.678091,4.62628814.29827,0.036722,2.406964,6.61224514.328268,0.729979,4.22369,4.61719214.358237,2.240463,4.08034,7.77258714.398215,-1.327664,0.619759,10.26627914.428213,1.100529,2.633087,8.15133714.458182,1.991659,3.116941,5.52622114.49816,-0.133668,1.931407,0.68496214.528159,-1.936269,0.302353,-3.0144914.558127,-2.361616,0.878126,-5.85806614.598105,-2.123688,1.607893,-7.9427314.628073,-1.950193,-0.341231,-8.26937714.658072,-2.01711,-2.812789,-10.35613214.69805,-3.547302,-3.677872,-7.84515514.728018,-4.173935,-1.019103,0.36463114.758017,-1.334218,-0.113782,-0.50269114.797995,-2.252888,-4.006542,-1.36234614.827963,-0.585157,-7.142411,-0.35291714.857962,0.123603,-7.977363,-0.15006314.89794,-2.146189,-4.192746,-1.22287614.927908,-1.397532,-0.398197,1.54567314.957907,-2.156592,2.604546,5.38771314.997851,-1.510842,5.602697,5.29343315.027819,1.338417,6.000406,5.23306415.057788,1.10917,3.825399,9.45117915.097766,-1.415041,0.126199,8.91044515.127764,1.126859,2.751362,6.07028815.157733,-0.744096,3.250375,4.44597715.197711,-1.402784,3.046867,-1.36543515.227709,-2.033837,2.326831,-4.0872415.257678,-2.706574,2.183521,-6.25952515.297656,-2.756284,1.35978,-7.11282715.327655,-1.676476,-0.00135,-7.51396415.357623,-1.477988,-2.146293,-9.66650115.397601,-4.630221,-3.214611,-10.27784115.4276,-5.224553,-1.311285,0.47930815.457568,-1.48203,-1.042377,2.21123415.497546,-0.17111,-3.588944,-1.98181515.527514,-1.820355,-5.961884,-1.87918415.557513,-2.538832,-5.861278,0.38113215.597491,-2.307643,-1.809588,0.65033715.627459,-1.725623,3.040786,4.51911915.667437,-0.104871,2.514169,7.10503315.697436,0.969161,2.769863,5.30408415.727404,-0.867228,1.58087,7.96958315.767382,-1.273659,1.843652,8.23227115.797381,2.5099,4.956822,5.42424815.827349,3.638572,4.350638,4.08918215.867327,-1.084281,2.731732,-1.27630815.897326,-2.788764,2.841989,-5.33598815.927294,-3.058814,2.159062,-7.28673215.967272,-2.433998,2.571311,-8.09755415.997233,-2.635968,1.991451,-9.09690416.027232,-3.044103,0.362932,-9.72672916.06721,-4.149047,-1.749593,-8.75972316.097178,-4.42946,-0.981781,-2.68812616.127177,-4.414872,-3.097043,0.83911816.167155,-2.519927,-3.251555,-0.46517416.197123,-1.954249,-4.124533,-0.32630916.227122,-3.270997,-5.721726,-0.06172416.2671,-1.087271,-2.187457,0.66453316.297068,-3.45741,-1.041673,1.93097516.327067,-5.140607,-0.440482,4.46809616.357035,-1.816244,1.333629,6.57828116.397013,-1.826033,2.971276,6.48074716.426981,-0.657525,5.828263,7.6891716.466959,-0.801047,3.619244,10.59078716.496958,-1.499091,3.464501,9.16326816.526926,-2.250962,4.122594,7.25956116.566904,-1.132996,3.048899,2.86562616.596903,-1.134347,1.136412,-2.23690216.626871,-1.874183,0.182332,-6.88383716.666849,-1.93044,-0.247222,-8.65846116.696848,-0.630123,-2.171027,-9.16114416.726816,0.230305,-3.634957,-9.41949516.766794,-0.004884,-7.055444,-10.95101216.796793,-4.698211,-4.41042,-6.28768116.826762,-2.272246,-0.823109,-0.20418216.86674,0.485275,-1.340304,-2.00334616.896708,0.065315,-2.892706,-1.12219416.926707,-1.656645,-6.422074,-0.09849916.966685,-1.086021,-5.105145,-0.62458716.996611,-0.949155,-2.368128,0.87952117.02661,-3.76019,-1.149648,4.14681517.056578,-3.50922,2.634556,5.34058617.096556,-1.521549,3.823238,6.98362217.126555,-1.887466,5.08684,7.21193117.166533,-2.479412,2.260027,9.44438317.196501,-1.089389,3.638945,7.84981317.2265,-0.645741,4.331654,7.41763417.266447,-2.231649,3.762573,1.62263117.296446,-3.251476,1.502676,-2.59484417.326414,-3.083274,0.570952,-7.10084517.366392,-1.94711,2.012533,-8.26567317.396391,0.08673,1.563483,-8.62772317.426359,-0.323014,-2.706566,-9.06923817.466337,-1.782371,-7.401579,-12.61218417.496336,-4.013199,-4.534057,-5.90228217.526304,-2.769678,-2.411874,0.57100417.566283,-1.146925,-2.595248,-1.71717317.596281,-2.196058,-5.665263,-0.93531317.62625,0.177192,-4.006339,0.72020117.666228,-1.685583,-2.089763,0.51138417.696196,-3.223896,-4.407913,0.35165417.726195,-3.66935,-0.463871,3.02970317.766173,-1.406783,5.220225,5.59972117.796141,-0.658664,5.422422,6.73433817.82614,-1.002751,6.255014,7.52788917.866118,-0.111575,3.127951,9.75650117.896086,-0.66729,1.927583,7.81227917.926085,-1.875796,1.576603,6.31865617.966063,-2.325388,2.807859,1.9108317.996001,-1.649279,2.300444,-1.55688518.026,-2.151018,0.307672,-4.86402318.065978,-1.842567,0.411808,-6.74599518.095946,-0.758949,0.654521,-8.11169618.125914,-0.39812,-2.991552,-11.15844318.165892,-2.785836,-4.656174,-8.20365918.195891,-3.266343,0.007318,0.67938918.225859,0.241582,-0.99421,-1.77098218.265837,-1.738843,-5.891237,-1.96016518.295836,0.044891,-4.223134,-0.94572518.325805,0.596095,-2.370811,0.08483618.365783,-1.943614,-4.78712,-0.57954618.395781,-3.117284,-1.64872,2.49150418.42575,-2.543276,1.127627,5.56410918.465728,-0.022799,6.470875,6.95657118.495726,0.962121,6.014047,8.36574218.525695,-0.483871,1.725929,10.25759318.565673,-2.096725,0.089404,7.90862318.595641,-0.10454,3.393691,6.58857918.62564,0.908899,5.146434,3.93408918.665618,-3.051913,1.607449,-3.96741318.695586,-4.386309,0.491456,-7.99970218.725585,-4.100614,1.502433,-9.09046118.765563,-1.713172,0.837191,-8.41284318.795531,-0.349627,-2.423359,-9.35067918.82553,-1.487925,-6.456509,-11.07847418.865508,-4.40812,-2.165693,-0.69216818.895476,-0.284992,0.972113,-0.3278318.925475,-0.545724,-0.883009,-1.46984818.965422,-2.039173,-4.517736,0.02057318.995373,0.825683,-4.552382,1.39909919.025341,-0.533561,-1.497577,2.29898319.06532,-2.01867,-0.7121,4.79309319.095318,-2.274704,1.650254,7.39339319.125287,-3.774596,1.794272,7.21929419.165265,-0.135753,5.409548,8.84995519.195263,-0.140153,4.358406,9.33038219.225232,-0.690412,1.428789,8.65454619.26521,-0.16434,3.433901,4.82752719.295208,-1.269731,4.961612,1.30005819.325177,-1.565642,1.630439,-4.55716219.365155,-2.895843,1.624336,-9.26765119.395123,-2.393316,4.179021,-9.82075819.425122,-1.872472,3.934239,-9.29380819.4651,-3.764291,-0.044473,-8.87594819.495068,-5.112906,-4.84922,-9.49919419.525067,-4.949615,-6.530156,-7.76270719.565045,-3.200594,-0.132331,-0.69914219.595013,-0.71521,1.874562,0.28860719.625012,-0.999467,-1.46161,-0.3088619.66499,-3.471683,-5.361041,1.08123319.694958,-1.672209,-3.698864,2.21296519.724957,-2.815958,-1.239476,3.06704319.764935,-2.057107,1.545388,7.25323719.794903,-0.678175,2.252261,7.76617619.824872,-3.308387,2.342293,7.31394419.86485,2.207874,6.469042,9.81464619.894848,1.893673,4.273257,9.36241319.924817,1.375124,2.1373,8.99513219.964795,-0.292443,1.404849,4.44341619.994758,-0.457044,2.124343,-0.99363720.024727,-1.941826,0.796121,-5.69977820.064705,-2.989486,1.192138,-9.07296420.094703,-2.791291,3.039908,-10.31989920.124672,-3.398579,1.727468,-10.7184520.16465,-3.968834,-6.069037,-11.32682520.194649,-5.204992,-8.785668,-7.00200820.224617,-6.700896,-3.084586,-1.60592620.264595,1.034706,0.897625,-0.25565420.294563,1.077613,-1.344158,-0.41831920.324562,-1.174273,-5.393625,-0.20380220.36454,0.266161,-4.653919,1.26749220.394508,-0.188924,-1.900087,0.52086920.424507,-3.064308,1.322941,3.75538620.464485,-3.383516,3.563939,6.78041520.504463,-1.429705,6.026891,7.55436320.524452,-0.681986,6.104085,8.83711920.56443,-0.587981,3.959946,10.05905220.594398,1.069762,4.242967,8.95866920.624367,1.533256,3.534634,8.43446220.664345,0.443412,2.436605,0.12864520.694343,-2.496232,0.731416,-6.16022520.724312,-3.888118,1.13754,-9.50491120.76429,-2.561095,2.247286,-10.15417620.794288,-1.366628,1.141101,-9.41864720.824257,-1.974631,-1.124024,-10.17060220.864235,-3.895313,-6.229434,-8.8108120.894233,-3.921089,-0.877973,-2.5733220.924202,-1.011984,2.149058,-0.28780720.96418,-1.279722,-3.440361,-1.01677420.994152,-1.216177,-6.273481,-0.27058721.02412,-0.463867,-5.521249,0.73615721.064098,-1.291629,-3.561078,1.71488721.094066,-2.494073,0.225465,4.18390821.124065,-3.447917,0.589968,6.40728821.164043,-3.199825,4.085102,8.20697621.194011,-3.160569,4.869719,10.52517521.22401,-1.417465,6.00838,11.47660221.263988,-0.980406,3.479491,10.8424321.293956,0.054757,2.334224,8.20630421.333934,-1.747265,1.636274,3.85667621.363933,-1.222787,0.715616,-1.63592521.393901,-1.150414,-1.397428,-7.44776721.433879,-1.764204,0.61161,-10.29675721.463848,-1.004735,2.527983,-10.45077221.493846,-0.095687,0.479623,-9.18927421.533824,-1.376085,-6.18637,-13.88220821.563793,-4.935635,-6.706689,-5.80837921.593791,-1.860279,-1.893551,-2.1867421.633769,2.158759,1.344039,-1.287121.663738,0.629715,-4.77716,-1.38429121.693737,0.196172,-7.019957,-0.56936621.733715,0.188134,-4.790761,0.13933821.763683,-1.97011,-2.926983,2.81364621.793682,-4.369226,1.92364,5.12560321.833629,-3.820431,5.919042,7.37428721.863628,-3.087899,4.357958,8.82725321.893596,-2.38241,2.506972,9.50279821.933574,-3.293948,1.908229,10.02113521.963573,-0.920878,4.877358,8.89562321.993494,-0.631677,4.795747,7.37141722.033472,-0.808695,0.823417,-1.90356222.063471,-2.427088,-0.19716,-8.4160822.093439,-2.73849,0.448385,-11.26827722.133417,-1.106762,1.773188,-11.6509722.163416,-0.113664,1.155229,-10.0667722.193384,-0.771806,-0.982945,-12.46634422.233362,-3.033721,-4.003284,-7.25569522.263331,-3.472727,-1.411409,-1.64913922.293329,-2.374349,-0.444951,0.89116522.333307,-0.687184,-2.908289,-0.79790422.363276,-0.1289,-3.588798,0.6782422.393274,-0.801868,-5.541217,1.18511722.433253,-1.249478,-2.428803,0.84110622.463221,-2.426899,1.909401,4.97307622.49322,-1.807386,3.109059,6.34947822.533198,-0.60715,3.355995,5.79057322.563166,0.396445,4.3584,6.30124722.593165,0.058691,2.071362,10.13786622.633112,-3.240801,-0.601674,9.22254722.663111,-3.017251,2.406449,8.11292422.693079,-1.970027,4.880125,5.93712422.733057,-1.029822,1.935216,-0.72344522.763056,-2.381714,-1.214724,-4.70628522.793024,-2.678864,-0.8689,-7.64271822.833002,-0.995814,0.362757,-8.08473322.863001,0.036748,-0.597374,-8.88114622.892969,0.625932,-4.05496,-12.19083722.932947,-4.309149,-1.643271,-3.7729222.962946,-1.282293,3.110581,-0.35323722.992889,1.087278,1.358682,-1.40713923.032867,-0.91343,-7.143884,-1.45616323.062836,0.118007,-8.361411,-1.000523.092834,0.912931,-8.371798,-1.610723.132812,-0.109991,-2.472697,-0.02568923.162781,-2.498641,-1.341263,3.46498323.19278,-3.239534,1.714082,4.59183823.232758,-1.97004,4.046936,7.04310123.262726,-1.788007,3.509261,9.60507223.292725,-2.526374,3.537181,10.37696223.332703,-1.296682,4.332386,9.08845223.362671,-3.26081,1.621974,6.34092823.392639,-1.939523,2.233261,-0.67049923.432617,-2.970381,1.429034,-9.19004423.462616,-3.911232,2.144192,-11.36939923.492584,-2.008707,2.401733,-10.57546423.532562,-0.501069,-1.770023,-9.1552623.562561,-2.815753,-7.067708,-12.05428323.592529,-5.988943,-3.193802,-5.30402123.632507,-0.243362,0.845521,-1.66792623.662506,-0.610003,-0.001384,-2.52356423.692474,-2.550211,-4.414026,-1.54538423.732452,-1.822361,-7.88617,1.47072223.762451,-0.575602,-3.83997,0.0649923.792419,-2.257627,0.206088,0.12403923.832397,-2.931171,1.826588,6.67677323.862366,-1.997318,2.467541,6.56333323.892364,-1.433415,2.406955,6.64706223.932342,-0.968843,2.316432,9.67132423.962311,-0.839507,4.178505,9.8732123.992286,0.516758,3.887288,9.39319924.032264,-1.796085,-0.446455,5.57067924.062232,-1.76575,1.269776,0.98909524.10221,-2.032783,2.721454,-6.55208724.132209,-2.76282,2.248752,-9.54826324.162177,-2.832791,2.019367,-10.40803424.192145,-1.535617,0.600882,-9.86487324.232123,-0.057195,-4.115018,-9.3919124.262122,-2.07919,-9.199844,-9.93252724.29209,-5.997678,-4.06149,-3.35719624.332068,-1.446006,-0.381441,-0.68033724.362067,1.456382,-0.86525,-1.32107724.392035,0.031445,-4.458363,-0.92575724.432013,-1.381433,-5.256594,0.4640624.462012,-1.793752,-1.661044,0.77117824.49198,-3.422723,-1.932432,2.58598724.531958,-3.750526,2.639873,6.05442324.561927,-2.449217,4.111637,6.77113824.591925,-3.057893,3.317508,8.6428724.631903,-1.886218,3.924801,10.49211524.661872,0.570582,3.907258,10.32609424.69187,1.000567,3.55073,9.84530724.731849,-0.347969,1.929301,4.01952924.761817,-1.12704,0.834451,-2.82242224.791816,-2.376773,1.60723,-8.09065724.831794,-3.297779,2.015372,-10.31369224.861762,-2.131817,1.789173,-10.25446224.891761,-0.8241,0.690902,-10.01775724.931708,-2.34032,-1.574591,-11.22974624.961707,-3.680693,-3.509887,-7.5640724.99161,-3.137094,-1.858525,-1.05458125.031588,-1.7913,-0.690581,-0.3582425.061587,-0.823404,-3.116268,0.42148525.091555,-1.583189,-4.764372,0.54789625.131533,-0.546881,-2.471619,0.98046725.161532,-1.097414,-3.568906,1.81413625.1915,-4.05178,0.032613,4.82759125.231478,-0.801979,5.159197,7.74191125.261477,1.490335,2.932833,8.38373625.291445,-1.974761,-0.182029,9.70412825.331423,-1.031724,0.88739,9.90423425.361392,1.335456,5.560914,9.31320525.39139,1.105702,4.98843,5.44672825.431368,-2.001062,0.319271,-2.16091725.461337,-2.605936,0.210319,-7.5029325.491336,-3.268103,1.44172,-10.19543125.531314,-2.80754,2.556659,-10.2724625.561282,-1.818477,0.687932,-9.48635225.591281,-2.423156,-2.070494,-10.98130825.631259,-2.741593,-3.439328,-8.97994925.661227,-3.866412,-1.716869,-1.97107425.691195,-1.194913,0.892944,-0.5515325.731173,0.838279,-1.748993,-0.66783225.761172,-2.190246,-9.970923,-0.38472325.79114,-1.605123,-8.866172,-0.00796325.831118,-2.688781,-1.871142,2.45985925.861117,-4.029669,2.490428,6.18935725.891085,-2.607889,3.666237,7.51775625.931063,-1.829145,1.529439,8.88410725.961062,-2.672447,0.864212,9.60203225.991022,-0.49898,2.956115,9.78446826.031,1.017248,3.893089,9.49598326.060999,0.780298,2.796646,6.33853926.090967,-1.512332,1.930415,1.29421726.130945,-2.112166,0.786788,-3.4502126.160914,-2.442022,2.036227,-7.49403426.200892,-3.571522,2.327662,-9.10703526.230891,-2.471407,0.549487,-9.15316126.260859,-2.066719,-1.289599,-9.89471726.300837,-2.38025,-3.133827,-9.85571326.330836,-5.187257,-3.517628,-3.15348926.360804,-1.347921,-0.773207,-0.31527926.390803,1.656057,1.007898,-0.95966326.430781,-1.882922,-7.627979,-2.48717626.460749,-2.624027,-10.004382,-0.65300426.500727,-0.169174,-1.452624,-0.60579926.530695,-2.07918,-0.45069,0.84050426.560694,-4.246724,1.091099,4.84208526.590662,-1.774179,4.869691,7.1094626.63064,0.883105,5.436208,7.45742926.660639,-0.265096,2.654108,8.92995626.700617,-2.399553,-0.572568,8.67472826.730585,-1.390342,2.420125,8.42060626.760584,-0.814473,4.997402,6.57411426.800562,-1.52561,2.002354,-0.94306826.83053,-2.04364,-0.832112,-5.74463126.860499,-1.899379,-0.761345,-7.38757526.900477,-0.188975,0.741867,-8.28191126.930475,-0.063219,-0.433945,-9.1047526.960444,-0.396953,-4.047062,-11.63802127.00038,-5.691692,-5.062073,-7.88797927.030379,-3.401752,-1.421406,-0.96785127.060347,1.075886,0.894463,-1.85693927.090346,0.100516,-3.294779,-2.62232827.130324,-1.338137,-10.851424,0.24221427.160292,-0.916461,-8.359329,0.13909627.20027,-2.112628,1.916789,0.07523527.230238,-4.344306,5.665005,5.11453727.260237,-1.463474,5.522574,7.40152227.300215,0.178731,3.879518,6.41910527.330183,-0.786733,1.700928,9.86265527.360182,-1.865499,0.547501,10.03513327.40016,1.087403,4.694351,10.10827127.430128,0.945037,4.306099,5.61272527.460127,-2.324922,1.240075,0.72788127.500105,-2.121812,1.497968,-4.22561927.530073,-2.740405,1.874936,-6.22929527.560072,-2.617786,1.789166,-6.71040427.60002,-1.294466,0.386797,-8.93553227.630018,-2.423902,-1.953174,-10.71017927.659987,-2.673361,-4.462442,-12.59297127.699965,-4.279292,-2.472464,-8.34505527.729964,-2.683903,-1.63302,0.01216227.759932,-0.416866,-1.246421,0.01163727.79991,-2.670558,-5.126533,-0.94951427.829909,-2.77951,-7.186628,0.53211827.859877,-0.80907,-4.811171,-0.12591727.899855,-2.820852,0.294586,2.67798927.929854,-3.362756,3.160292,5.62490927.959822,-2.027609,5.701185,6.80384127.999757,0.021577,3.915864,8.41972228.029725,-1.506936,1.236521,9.88505528.059724,-2.489452,-0.442841,9.956428.099702,-0.987425,3.549006,9.01686528.12967,-0.088784,3.906227,7.59906528.159669,0.535056,2.897432,1.7865728.199647,-1.661753,-0.145927,-3.91079928.229615,-2.940866,-0.07184,-7.79869828.259614,-3.082825,0.807305,-9.00236728.299592,-0.26899,0.185104,-9.47624528.32956,-0.145537,-0.821207,-10.97234628.359529,-2.387307,-2.764389,-10.83337928.399507,-3.998417,-1.820318,-0.94875928.429505,-0.865065,0.049556,-0.68464928.459474,0.84133,-3.426397,-1.5950428.499452,1.308666,-9.864386,-0.86998528.529451,-0.593877,-9.817323,-0.95792628.559419,-1.285022,-4.342415,-1.01212828.599397,-3.150708,3.002742,3.48729428.629396,-3.640494,3.605774,5.66471628.659364,-1.363504,2.76018,6.1597628.699342,-2.273585,1.563802,8.29537528.72931,-2.311813,1.953875,9.96521628.759309,-1.01793,2.853446,9.67611128.799287,-2.023265,3.393103,7.4877628.829255,-2.955447,2.086786,1.31384628.859254,-2.02164,1.414242,-1.45218928.899232,-0.941385,1.29348,-6.6509228.9292,-2.256217,0.675771,-7.87635428.959199,-1.195833,0.479582,-7.87436328.999136,0.190019,-0.137052,-7.51262829.029104,-1.189948,-2.719201,-11.96569829.059073,-5.867136,-5.4905,-8.11313629.099051,-2.989502,1.197307,-0.40092529.129049,2.286782,3.388984,-0.92124129.159018,0.551303,-5.180986,-2.43684529.198996,-2.590032,-11.909922,-1.59894329.228994,-1.294058,-6.125391,-0.80353529.258963,-0.659945,0.501847,0.3700429.298941,-2.317675,0.512696,4.7461229.32894,-2.260472,1.863565,5.35543329.358908,-0.829839,2.595732,6.79910529.398886,0.668229,2.898065,7.22800929.428854,-1.235091,1.601579,8.67120629.458853,-2.31883,0.552729,8.41305929.498831,0.000363,4.503691,8.14663929.528799,-1.79543,3.90362,4.01491229.558798,-3.158951,0.468703,-0.81907129.598776,-2.059596,0.340001,-5.16557429.628744,-2.023697,1.845607,-6.62665229.658743,-1.461784,2.202754,-7.43457929.698721,-0.43251,-1.793557,-7.9373229.728689,-0.756201,-4.341369,-12.05196529.758688,-3.772234,-3.800587,-8.5779329.798636,-1.00993,1.370001,0.07321429.828634,-0.120585,0.468895,-0.99378229.858603,-1.840397,-7.285706,-1.65476629.898581,-0.051434,-9.944446,-0.29970929.928579,0.427311,-6.033791,-0.83936229.958548,-1.057262,-2.068878,-0.63999929.998494,-4.46346,2.994229,3.67276930.028493,-2.365388,4.686757,5.90662930.058461,-0.154381,3.930031,6.20830530.098439,-1.702884,2.120286,8.71045230.128438,-0.776495,2.858882,10.39687230.158406,2.347808,4.88657,9.51744130.198384,1.0757,0.929533,7.77381830.228352,-1.301948,-0.54745,1.60279430.258351,-0.930315,1.001732,-4.03544130.298329,-3.231761,1.782234,-9.05150330.328297,-3.846528,0.806478,-9.89946830.358296,-2.071913,0.185657,-9.15798730.398274,-0.802514,-1.505991,-10.63611130.428242,-1.188511,-2.486085,-13.87573430.458241,-3.18041,0.487163,-0.99615930.498219,-3.23756,-0.270629,-1.16937430.528187,-2.171787,-3.874723,-1.81178630.558156,-0.522412,-6.772999,0.61144630.598134,-1.135187,-3.650324,0.4976130.628132,-2.455188,-2.555767,-0.10060230.658101,-2.182341,-0.085254,2.65382530.698079,-4.144337,1.553232,6.7986130.728077,0.112019,4.158675,8.02913330.758046,2.033543,6.16412,9.11068730.798024,0.51133,0.800541,10.27820130.828023,-0.06513,-0.58138,8.20531830.857991,-0.984795,1.70529,6.40555630.897969,0.161633,5.12112,1.40719830.927937,-1.381896,1.853841,-3.26597430.957936,-2.927954,-0.624437,-7.51516630.997877,-2.707214,0.30937,-9.00925731.027845,-1.522962,0.783831,-8.2588331.057844,-2.152041,-0.735804,-6.92236131.097822,-1.233172,-3.633516,-8.35218531.12779,-4.278661,-5.474735,-4.5561631.157789,-4.178711,-5.20536,-2.83391531.197767,2.030248,1.315747,-1.54004531.227735,1.712967,-3.632756,-1.66339431.257734,-0.294082,-7.528331,-1.33938531.297682,-1.729065,-5.381844,-1.17895731.32768,-1.306837,-3.541239,1.37775331.357649,-4.042591,0.175397,4.85100531.397627,-3.945163,4.912263,6.95477431.427625,-2.057663,5.242099,9.11786231.457594,-3.427829,3.147206,10.43821131.497572,-1.164336,4.351955,10.71211931.527571,0.26601,4.44232,8.01335831.557539,-0.851629,4.48485,4.83413931.597517,-2.025151,2.28256,-1.62400231.627516,-2.976622,1.114416,-7.17270331.657484,-3.332847,0.730209,-10.26868231.697462,-2.251514,0.247414,-10.74146731.72743,-0.785309,-1.023406,-9.41740631.757429,-0.775973,-1.890553,-8.04029131.797407,-2.59524,-3.972905,-11.19332131.827375,-3.327295,0.25954,-3.18566131.867353,-2.222802,-1.365223,-0.15879931.897352,-1.022462,-4.149314,-2.10623831.92732,-2.131616,-7.577295,-0.93416331.967298,-3.238821,-6.607687,0.62225731.997255,-1.113834,-3.959052,-1.33488232.027223,-2.532529,1.40872,1.32084232.057192,-4.115311,4.981374,6.06345932.09717,-1.46587,5.79409,8.08964432.127168,-1.183773,5.648425,10.05505432.167146,-0.609292,3.191481,12.26760732.197115,1.618173,4.045451,10.30645332.227113,1.760167,2.644194,8.63400232.267092,-0.045414,0.969708,2.42395132.29706,-0.036457,1.476143,-0.7436532.327059,-1.528003,3.000366,-7.28551232.367037,-4.452977,0.288004,-10.42129932.397005,-1.932495,-0.574523,-9.20427132.426973,-1.190149,-0.703121,-8.68475332.466951,-1.576354,-3.165891,-11.24660832.49695,-2.577927,-3.605604,-7.91400332.526918,-3.252106,-2.177845,-1.35449132.566896,-1.433078,-1.091118,-0.74656632.596895,-0.900841,-4.490278,-1.31928732.626863,-1.092175,-6.386671,0.01544232.666841,-0.699003,-4.398328,-0.81655632.69684,-3.553157,-3.17283,1.37251432.726808,-4.262722,0.856511,5.94260532.766786,-1.719217,3.374553,6.49740432.796755,-1.723042,2.199018,7.96756832.826753,-2.161473,3.611209,9.6607832.866731,0.357523,3.957013,10.53063732.8967,0.743796,3.288962,9.18628332.926698,-3.055227,0.941124,5.29420732.966676,-0.995514,2.628141,-1.72616232.996616,-1.941483,1.56253,-7.44099733.026615,-3.525088,1.052117,-9.68441933.066593,-2.335572,1.39766,-10.58640633.096561,-1.217798,0.355257,-10.18479933.12656,-0.877174,-2.633876,-11.41126533.166506,-3.178706,0.902972,-10.780733.196506,-2.774966,1.613404,2.78413433.226474,-2.98718,-3.109312,1.81690533.266451,-2.516272,-6.460947,-2.43159833.29645,-0.297429,-8.215994,-0.32194633.326419,0.5544,-5.06665,-0.93903733.366396,-3.294049,0.382203,2.7684933.396395,-4.449844,1.329858,7.28197933.426364,-3.203714,3.814112,8.10022433.466342,-0.718363,3.608539,10.42080833.49634,-2.084154,2.495051,11.14818233.526309,-0.12366,4.011413,11.27530433.566287,2.612849,3.946131,9.2947433.596256,0.001932,3.773509,4.0101933.626254,-2.04201,1.694748,-3.03072333.666232,-2.78438,2.007862,-8.90420333.696201,-2.960784,3.2818,-10.92130833.726199,-2.637412,2.772111,-10.51501633.766177,-2.078575,0.117719,-8.87903933.796146,-3.431026,-1.879762,-9.78673833.826145,-4.752093,-2.129595,-9.74554633.866122,-4.346534,-1.685118,1.77111733.896091,-2.224742,-2.718616,1.07908333.926059,-1.403491,-5.780128,-1.09991533.966036,-0.828289,-6.954086,1.02516733.995995,-3.699546,-5.515447,1.10925134.025963,-1.750894,-0.521627,3.82910934.065941,-1.764161,5.538469,8.98495134.09594,-2.89682,2.189336,8.96615534.125908,-1.076378,1.493329,8.90473834.165886,-0.923276,2.977479,11.75467734.195885,1.20515,2.562856,11.08677634.225853,0.798325,2.685712,10.08330334.265831,-1.83875,1.395114,2.25790734.2958,-2.550168,0.388839,-3.54080634.325798,-3.21775,1.493663,-8.31981534.365776,-3.732354,2.042854,-11.00162934.395745,-2.042042,1.04512,-10.54912834.425743,-1.788207,-1.062309,-10.00889534.465721,-2.446036,-5.218352,-13.9667234.49569,-2.80845,0.20308,-5.291634.525688,0.748813,0.764988,-0.17840934.565667,-1.672109,-3.506809,-2.41678134.595635,-1.47539,-8.470321,-0.90445234.625634,1.038397,-6.638221,0.55271934.665581,-3.596004,0.178535,1.72634534.69558,-2.826048,2.162784,7.63688334.725548,-2.395835,3.046731,9.44123434.765526,-1.469112,1.788749,10.2732534.795525,0.217491,3.112873,10.26252734.825493,0.346176,1.22086,11.45251534.865471,-0.227495,0.72908,9.32922234.89547,-1.669265,0.557348,6.98221134.925438,-1.452669,1.670727,1.86116734.965416,-1.813529,0.712251,-5.99106434.995401,-3.693777,1.703655,-10.37316635.025369,-3.910759,1.176055,-11.84109535.065347,-2.148834,-0.896871,-11.67961635.095316,-0.772021,-3.602185,-12.5288835.125314,1.613088,-0.993056,-9.88106535.165292,-3.164618,0.027818,-2.93202735.195261,-2.293261,-2.04146,-0.44455135.225259,0.285287,-3.964941,0.0846235.265237,-0.737283,-7.703975,1.32467635.295206,-0.360022,-5.90086,1.43922835.325205,-2.223803,-1.84382,0.93066435.365183,-4.75751,3.255598,7.02287335.395151,-3.692373,4.352944,9.03650935.425119,-1.251957,3.491446,11.34731635.465097,-2.431083,1.338575,12.50810435.495096,-1.824571,1.464016,11.37632735.525064,-1.254919,3.198202,9.38364335.565042,-0.566803,4.880561,2.63971435.595041,-2.1248,0.557115,-4.31989635.625009,-3.298207,-2.049351,-9.71687135.664987,-1.566559,1.701476,-12.39455835.694986,-0.389823,2.344751,-9.88533935.724954,-1.693391,-0.5778,-11.35172535.764932,-0.871577,-4.355006,-11.40801835.794931,-3.654768,-5.501389,-7.27304335.824899,-1.332942,-1.166483,-1.53803135.864877,1.772291,-0.370389,-1.11106235.894846,-2.200185,-9.323661,-0.45777935.924844,-0.518439,-6.892191,1.34192235.964822,-1.906231,-0.57385,0.85220135.994749,-4.04074,2.605139,4.22694236.034727,-2.121326,4.984766,7.26625836.064726,-2.41023,2.476733,7.50209436.094694,-1.861938,2.411967,8.05954536.124693,-0.863807,3.074666,9.28106536.164671,-1.533803,3.393644,8.53571836.194639,-1.55791,4.763632,7.64559436.224638,-2.714543,1.697665,3.57357536.264585,-1.299829,0.018846,-2.93482936.294584,-0.595666,0.595354,-7.14788336.324552,-1.718514,1.41346,-7.69498636.36453,-0.340062,0.631291,-7.6754436.394529,-0.621089,-1.967759,-9.1872536.424497,-0.697142,-3.651486,-10.87984436.464475,-3.994686,-5.987775,-6.5741836.494474,-2.637608,-5.008116,-2.28712836.524442,1.786206,-1.491406,-0.99181736.56442,-0.978383,-5.238091,-0.95379236.594419,-1.167558,-2.744383,-0.56606636.624387,0.276485,0.514526,0.04688536.664365,-4.044189,-3.078617,1.49186536.694334,-3.334747,3.19932,6.50873736.724332,-2.635646,4.898271,7.91189536.76431,-2.404862,4.105407,9.43656236.794279,-0.357877,3.97477,10.25536.834257,0.133479,1.608322,10.26465136.864256,-0.581851,1.884967,8.59506436.894224,-2.639528,2.759895,5.13855936.924223,-1.566919,2.42323,-2.11826536.964201,-3.546045,0.459616,-8.36572536.994135,-3.065974,2.157907,-9.66643937.024134,-0.994976,1.499351,-8.51351337.064112,-0.766692,-2.697275,-10.25512637.09408,0.027166,-2.509811,-12.09774637.124048,-2.163418,-2.07281,-8.66164337.164026,-2.167099,-3.238085,-1.62990737.194025,0.63428,-0.440632,-0.98796137.234003,-1.845203,-7.588462,-1.01566837.263971,0.360451,-7.435194,0.55497337.29397,-0.201271,-3.692315,-0.84699837.323938,-2.405048,-0.51911,1.6556337.363916,-3.635325,5.302742,6.68666637.393915,-3.051603,3.251512,7.95105637.433893,-1.545053,2.64496,9.94726237.463861,-1.393875,3.556318,10.25214137.49386,-0.885738,2.345992,11.10318837.533838,-1.772651,2.370154,8.78790337.563807,-3.860891,1.579266,2.46187237.593775,-2.197989,0.412,-2.09438537.633753,-1.590375,1.089929,-8.46234937.663752,-2.725244,2.278746,-10.6516437.69372,-2.050417,1.634448,-10.24308937.733698,-0.922098,-0.844065,-9.45425837.763697,-0.933309,-3.405692,-10.44623737.793665,-2.623,-2.919321,-7.86982137.833643,-2.570824,-1.387619,-1.90285137.863642,-0.839665,-0.348737,-0.65300937.89361,-0.93194,-4.913263,-0.44234237.933588,0.078892,-9.296117,-0.24128237.963556,0.425153,-4.247253,-0.27137937.993505,-2.921211,-0.216677,1.86956338.033483,-2.686345,6.026031,6.42425838.063451,-1.054755,5.123846,7.22517238.09345,-1.593702,0.704823,7.63349438.133428,0.056058,3.389065,8.30507238.163396,-0.182989,2.063036,9.95473338.193395,-0.082189,2.847621,8.55842538.233373,-2.857958,1.517101,5.66640738.263341,-2.430539,2.308108,-1.53554538.29334,-2.754431,1.053357,-5.86573338.333318,-3.272258,0.981644,-9.25222338.363287,-2.315206,1.386895,-8.71015538.393255,-0.366379,0.331886,-6.78664638.433233,-1.118713,-4.511736,-10.97027238.463232,-3.064392,-6.659808,-7.8191238.4932,-3.058152,-1.821279,-0.75236238.533178,1.172917,1.118315,-0.07673638.563177,-0.424553,-4.083339,-1.08923738.593145,-1.881052,-7.230178,-0.71948138.633123,-0.644883,-5.016036,0.88591438.663122,-0.964491,-1.455003,0.24236838.69309,-3.197042,2.844682,4.76021138.733068,-1.887848,5.47877,6.97433238.763067,-0.610459,2.406963,8.35984838.793035,-1.157275,0.314568,8.8841438.833013,-2.37935,0.035295,9.80821138.862981,-1.652253,3.891278,8.95185538.89298,-1.300822,5.603907,6.93387438.932958,-1.477382,2.005302,-2.59990538.962926,-3.027316,0.102198,-7.78352138.992925,-2.01276,-0.030392,-10.24470839.032892,-0.831453,0.337508,-9.97987239.06286,-0.759374,0.566009,-9.54891139.092859,0.012817,-0.124718,-10.60083239.132837,-0.755906,-1.811059,-9.51834439.162806,-3.613104,-0.364485,-3.4322139.192804,-2.500406,-1.669573,-0.59765439.232752,-1.014909,-3.547043,-0.10223539.262751,-1.614961,-7.196871,0.29960439.292719,-0.606113,-6.997799,0.0461239.332697,-2.186798,1.780009,2.02335439.362696,-4.292261,1.960588,6.30144439.392664,-3.654581,2.09445,7.05958139.432642,-0.654509,4.420233,9.33170439.462641,-1.588027,2.161514,9.69084939.492609,-2.900831,-0.800048,10.42109139.532587,-2.598722,4.147878,9.22611739.562586,-1.064015,5.927496,6.172839.592554,-1.430962,2.259403,-0.06657539.632532,-3.025173,-2.115783,-6.72586139.6625,-1.870533,0.15467,-9.22713839.692499,-0.659495,0.969844,-9.18021739.732477,0.170476,-1.827917,-8.61134439.762445,0.765141,-4.751056,-11.72666339.792444,0.230622,-5.939816,-12.26307739.832422,-1.75458,-2.253411,-3.23637639.862391,1.810848,-0.099599,-1.48663939.892389,-1.938332,-1.979546,-1.49339139.932367,-2.165838,-6.528033,0.95792539.962336,0.29756,-5.709721,0.28107639.992334,-1.055582,-0.400199,-1.63596940.032277,-4.777409,3.305791,6.32820140.062246,-3.167933,5.143475,7.70287640.092214,-1.893603,4.592011,8.47541240.132192,-1.970655,1.361462,10.2301640.162191,-1.847384,0.730045,10.38033640.192159,-0.182811,3.819046,9.42745540.232137,0.064602,5.143155,4.77293440.262136,-1.755643,0.487503,-3.11821140.292104,-3.120287,-0.401689,-8.60270940.332082,-1.340685,2.177593,-11.70390140.362081,-0.977849,1.019774,-9.97669940.392049,-0.855701,-1.640064,-9.01133240.432027,-0.820564,-4.180918,-10.78239840.461995,-2.024169,-4.539022,-7.49195140.491994,0.72167,-0.495965,-2.07177440.531972,-0.063754,-0.740127,-2.62986540.56194,-2.539974,-6.496281,-1.31865940.591939,-1.842699,-5.121481,0.70560840.631917,-2.206056,-1.440069,-0.44313440.661886,-5.529859,-1.461113,3.79948440.691884,-3.988518,2.344736,7.92356740.731862,-2.562813,3.201502,9.35993340.761831,-2.074806,1.41378,9.92634440.791829,-1.475613,0.649224,11.22582240.831807,-0.943879,1.469614,10.14259340.861776,-1.032772,2.220724,8.70278540.891744,-1.398716,2.28849,3.09572440.931722,-1.345448,1.057788,-4.98076940.961721,-1.405417,2.859883,-9.73636240.991689,-2.270728,3.473571,-12.14471241.031606,-1.053812,0.333486,-9.42927141.061605,-0.063859,-0.983578,-9.3555741.091573,1.015657,-3.063579,-11.16040641.131551,-2.907216,-3.513823,-5.35710841.16155,-2.756374,-2.569405,-1.98364841.191518,-0.900001,-2.427574,-1.61952841.231496,-0.830346,-7.318213,-1.06811641.261464,-1.074237,-6.484604,0.04380841.291463,-0.249614,-0.088075,0.0735141.331441,-4.840981,1.513814,3.085441.36141,-3.888693,3.502432,7.07274441.391408,-1.622332,3.523678,7.29789241.431386,-3.44008,-0.774539,9.66974941.461355,-3.173805,1.224391,11.05812941.491353,-1.926966,3.042648,10.15440541.531331,-1.424711,4.02211,8.89201541.5613,-0.065688,3.993574,2.68197341.591298,-2.454421,0.829564,-2.3200941.631276,-3.289521,0.751565,-9.74534441.661245,-2.302397,0.660293,-10.6333441.691213,-0.486319,0.426807,-9.22298141.731191,-0.637268,-1.025161,-9.6667541.76119,-0.182868,-1.789296,-10.52755941.791158,-1.241712,-2.301322,-5.57701441.831136,-4.324429,-3.839903,-1.07370841.861135,-1.701694,-3.265699,-0.94214141.891103,0.650426,-3.250545,-0.33555341.931081,-0.935269,-4.272662,0.3720941.96108,-0.474552,-5.093387,-0.04352641.991048,-1.330489,-2.502139,0.56370242.030997,-4.100303,1.999182,4.6542142.060996,-0.330263,6.827459,7.32894442.090964,-1.268276,2.267093,8.6088142.130942,-1.318496,1.599962,9.17728542.160911,-1.21984,2.099996,9.62100142.200889,-0.105157,3.372533,7.79621842.230887,-1.695243,2.782134,4.58168742.260856,-1.283056,0.353052,-0.84993742.290854,-0.484912,-0.078945,-4.95356642.330832,-1.687758,0.234611,-9.27781642.360801,-1.026966,0.105857,-10.28105842.390799,0.069502,0.281886,-9.89591642.430777,-0.879914,-0.335039,-12.01832342.460746,-1.36509,-2.315732,-6.28769642.490714,-3.268721,-1.570231,-0.31040242.530692,-1.696398,-2.090097,-1.21976942.560691,-0.32012,-7.668154,-0.4891242.590659,-0.596156,-10.719864,0.5891242.630637,-0.079031,-4.185327,-0.4738542.660636,-2.270806,3.580672,1.16447242.700614,0.607887,10.426997,7.6626842.730582,-0.300814,2.964798,7.41741642.760581,-1.741849,-1.791688,6.78152142.790549,-1.177499,-0.106706,7.09005542.830527,-0.638869,0.269336,7.14078942.860526,-0.360486,4.429898,7.27131742.900474,-1.517117,2.884323,2.61831742.930472,-2.986258,0.027108,-3.39274742.960441,-1.875281,0.941349,-6.96524443.000389,-1.232598,1.570201,-7.90685443.030387,-1.042517,1.110987,-8.00367343.060356,-1.247034,0.235634,-9.34533543.100334,-1.28368,-2.844687,-10.36422543.130332,-2.610998,-1.360045,-6.43727543.160301,-2.3591,0.416017,-0.18097243.200279,-3.937164,-4.341346,-2.08011243.230278,-2.419874,-7.90747,0.91205543.260246,-0.042941,-8.990012,2.8003343.300224,-2.502848,-4.869576,-0.96623343.330192,-4.604783,0.163433,4.03500343.360191,-5.706531,5.117388,7.32993943.400169,-1.693845,4.431505,9.67338343.430137,-1.326499,0.672533,10.3970843.460136,-3.544747,-0.998135,11.70402143.500114,0.508814,5.203407,10.26447143.530082,1.178766,3.451951,9.83652543.560081,-1.392531,2.074414,0.04233143.600059,-3.264836,0.568186,-9.05823543.630027,-1.903673,2.863829,-12.38965443.660026,-1.417248,3.026213,-11.82502643.699974,-2.006499,1.43938,-8.82639343.729972,-1.204001,-0.77814,-9.50652243.759941,-2.848785,-4.828899,-9.71563143.799919,-3.349642,-1.965379,-2.27181543.829917,0.000741,1.037081,0.17463843.859886,0.705877,-2.22153,-1.65663843.899864,-1.648105,-5.800152,-0.10533343.929862,-2.365035,-5.918681,0.33259843.959831,-3.868654,-4.28874,1.37087943.999809,-4.541341,1.351859,6.4097844.029783,-3.734434,4.650287,7.39290344.059751,-2.804294,2.699112,9.43863244.099729,-0.941088,3.493105,10.12210344.129697,-1.043038,1.99704,11.27627344.159696,-0.564362,2.488632,8.79845344.199674,-2.110639,3.624721,4.22248244.229642,-1.348651,1.529754,-2.36239244.259641,-1.153242,-0.748121,-9.41529444.299619,-0.536218,-0.297021,-12.70958544.329587,0.811516,0.716282,-11.8222344.359586,-0.013692,-0.310324,-10.21849444.399564,-0.897123,-3.025283,-8.48873344.429532,-3.656774,-2.659564,-4.62653944.459531,-1.919262,0.090638,-1.0652544.499479,1.764044,-4.333551,-2.31977344.529477,-1.629459,-10.07527,-1.26599244.559446,-0.842167,-8.450896,0.44977244.599424,-0.321704,-0.686423,-0.18294944.629422,-3.959205,2.453436,3.25908344.659391,-3.942752,4.312362,6.42484444.699369,-1.151127,5.1859,6.96177344.729368,-1.33144,3.675501,8.87595744.759336,-2.332359,-0.616003,11.14190344.799314,-1.484563,3.602827,9.6186944.829313,-0.673,4.802257,9.9476244.859281,-0.398065,4.510732,4.6234344.899259,-2.507131,-0.282597,-6.42457944.929227,-3.825433,-1.061452,-10.31334644.959226,-1.782924,0.393037,-9.42567644.999204,1.381148,0.952749,-8.69539545.029137,0.057406,-1.969772,-12.29182245.059136,-1.440005,-6.832043,-11.17406545.099114,-4.719906,-6.803856,-3.07282345.129082,0.86718,-0.118477,-0.42205745.159081,1.867181,0.043007,-0.98774745.199059,-0.531517,-7.867174,-0.65499445.229027,0.399028,-7.006881,0.39155345.259026,-0.075396,-0.525519,-0.87565845.298974,-4.478292,2.871463,3.59590245.328972,-1.428268,8.62388,6.93758545.358941,-0.372159,5.3448,7.26560245.398919,-1.385216,-0.083527,7.31076845.428917,-1.917301,0.69095,10.14848145.458886,-1.026412,2.657282,8.91921945.498864,-1.687797,2.5737,7.95283545.528863,-1.880168,2.739535,2.76221445.558831,-2.267193,1.79066,-2.0520545.598809,-2.225177,0.355009,-8.12266245.628808,-2.150818,-0.31938,-8.80603445.658776,0.220124,0.545094,-8.07683745.698754,0.060343,-1.69649,-9.3263945.728722,-0.870019,-4.649448,-8.92580245.758721,-3.329463,-6.906618,-4.47497345.798699,-1.55796,-2.699486,-0.18876845.828667,1.798548,-0.48184,-0.53223545.858666,0.626504,-5.328312,-1.26708245.898644,0.19524,-4.916027,-1.41071145.928612,-0.507612,-2.722289,-1.18536145.958611,-2.61914,-4.624402,0.8544645.998589,-2.694683,3.406121,3.85295146.028512,-3.034487,6.749844,4.59355646.058511,-1.755168,5.857284,7.19156646.098459,-2.875972,1.083305,9.57912146.128457,-3.833676,-0.393624,8.7485446.158426,-3.45573,2.292589,7.25433146.198404,-0.597842,7.035521,4.57364546.228402,0.094338,3.02476,0.79818546.258371,-0.814754,-3.165318,-5.93665346.298349,-1.610409,-3.64144,-10.45565446.328348,0.195392,0.603609,-10.70222846.358316,1.531996,2.305327,-10.20929846.398294,-0.074978,-2.746271,-13.84475946.428293,-3.069057,1.103003,-5.30968946.458261,-2.397971,-0.990537,3.39566746.498239,-2.127139,-4.756833,-2.53077346.528207,-0.725951,-6.789673,-0.43904446.558206,-0.75732,-9.323289,0.26809446.598184,-0.652005,0.045127,0.65394946.628152,-2.590627,2.792187,4.55350846.658151,-2.826153,4.190691,6.94223746.698129,-0.044527,3.606498,6.83518946.728097,0.224285,3.157215,7.59440146.758096,-1.036245,0.144996,9.65274546.798074,-0.375817,2.692079,8.03854546.828042,-0.373202,4.130081,7.84643546.858041,0.006017,4.079885,3.69960646.897989,-1.67842,-0.151581,-3.29305946.927987,-2.354247,-0.680695,-8.1131346.957956,-1.890872,-1.238385,-8.29819446.997934,0.819749,-0.622457,-7.80795647.027903,-0.991747,-1.43692,-9.67130447.057871,-0.700507,-4.119343,-8.83150747.097849,-4.184495,-3.291317,-2.10046447.127848,-1.484639,-0.656305,-0.0284647.157816,0.714523,-3.581816,-0.99050247.197794,0.946076,-6.962533,-0.12274947.227793,-0.093306,-9.209482,0.14942847.257761,-0.031536,-6.996368,-0.74748247.297739,-1.290058,1.107138,1.26821147.327707,-3.519482,3.967056,3.47572247.357706,-1.977294,7.097403,5.189947.397684,-0.827592,3.932948,5.75227747.427652,-1.352363,2.957273,6.41849247.46763,-2.319242,0.644276,7.46090147.497629,-0.852371,4.125262,7.0395247.527597,-1.03919,6.041306,5.45713947.557596,-1.890478,3.836051,0.29217847.597574,-2.411165,0.342537,-5.40471347.627542,-2.2091,-0.857615,-8.23954547.657541,-1.346806,0.011518,-8.36282947.697489,-0.141597,-0.698703,-9.08100147.727487,-0.165441,-2.125816,-10.73847347.757456,-1.188561,-3.76729,-10.57011847.797434,-3.916388,-4.240695,-0.05962947.827433,-2.826116,-3.664066,0.58601947.857401,0.240604,-2.595093,-0.85552447.897379,0.532821,-6.788842,-0.01935747.927378,0.194114,-6.677675,-0.01191147.967356,-1.899127,-3.553496,0.23338447.997324,-4.04751,3.059548,2.96276848.027277,-2.655763,8.923924,5.72293248.067255,0.19577,4.259138,7.94898448.097223,-2.332857,-0.344307,8.81238548.127191,-2.768764,-1.233034,9.94679548.167169,-2.607926,1.91093,7.49462448.197168,-2.17038,3.970122,6.59144948.227136,-0.881397,5.743238,2.81313748.267114,-2.366237,1.412586,-3.3169548.297113,-3.389465,-0.603433,-8.24770448.327081,-2.506779,0.347959,-9.23785848.35708,0.404496,0.868723,-8.17201548.397058,-0.632503,-1.917393,-9.60036748.427026,-1.965074,-5.511887,-11.07116448.467004,-3.123701,-3.092777,-2.65823548.497003,-1.758908,-1.36401,-0.39818148.526972,-0.127861,-4.010805,-1.25782548.56695,-0.310105,-8.360918,-2.23334148.596918,0.273231,-7.409588,-0.45807748.626917,0.213006,-5.365567,0.46883848.666895,-2.269399,-0.704497,0.12025148.696863,-3.225511,1.921779,3.66646548.726862,-3.775356,4.551856,4.66744248.76684,-1.901759,5.24917,5.64918148.796808,-3.050092,3.855893,9.00360248.826807,-2.937619,2.294926,9.43172948.866785,-2.270033,3.752279,8.72485148.896753,-2.049124,6.576372,5.07366348.95672,-3.39003,0.095176,-6.37984548.966699,-3.218791,-0.693926,-7.8447748.996698,-1.856222,-1.634388,-9.16369749.026654,-0.022674,-1.214294,-8.28739649.066632,-0.449325,-3.807593,-9.37070349.096631,-0.75179,-7.781964,-13.09612249.126599,-4.343746,-3.609477,-6.18577149.166577,0.508079,0.479873,0.60799949.196576,0.116514,-3.225911,-1.51038849.226544,-1.841269,-7.550389,-0.36530249.266523,-0.404592,-4.928638,0.41885849.296521,-0.357335,-1.383996,-0.20846649.32649,-2.756093,-2.756805,1.55698549.366468,-3.934775,3.981863,4.94672749.396436,-2.255877,7.250166,6.67831549.426435,-0.720413,4.721678,8.33673849.466413,-1.07317,2.988877,9.19113449.496381,-1.208247,0.399,9.13659349.52638,-0.728549,2.835487,7.86129249.566358,-0.73138,5.942341,5.29297149.596326,-0.661584,2.313538,0.14209149.626325,-1.666882,-1.353406,-6.44042549.666303,-2.399567,-0.173992,-9.15454649.696271,-0.449584,1.56715,-9.26051649.72627,-0.719076,-0.85427,-8.46009849.766217,-1.745081,-6.288392,-8.29534949.796216,-0.792671,-7.603523,-6.41770449.826184,-4.385946,-5.87716,-2.50240349.866162,0.31165,0.966742,-0.01536149.896161,1.491987,-0.096441,0.08951949.926129,0.191662,-4.792301,-0.66814449.966107,-0.716623,-4.273906,-2.52193849.996106,-2.313227,-3.277494,-1.53173550.026019,-2.386522,0.936718,3.29904950.065997,-3.043636,4.830345,4.99410650.095995,-0.86022,5.583602,6.86011750.125964,0.49475,4.810495,9.56561650.165942,-0.617404,1.130322,10.3139950.19591,0.127321,0.442142,8.85793250.225909,0.331898,1.263258,8.09971450.265887,-2.793021,5.552354,2.61929350.295855,-3.789995,3.46878,-4.7409950.325854,-4.744026,-0.074641,-8.22175250.365832,-3.132721,1.174214,-9.1669750.3958,-1.364113,2.407344,-8.26225950.425799,-0.906979,-0.596387,-10.25193450.465777,-0.612024,-8.018789,-11.63804550.495745,-3.910429,-0.747258,-1.92048450.525744,-1.800999,-0.283779,-0.14256250.565722,-0.068781,-4.582725,-2.61175250.59569,-1.235889,-7.544236,-1.73404950.625689,-0.275476,-6.13538,0.06023550.665636,-3.407163,-4.079382,0.99555150.695635,-4.786291,-0.50385,5.38821450.725603,-3.387917,5.784491,8.40650550.765581,-1.632651,4.152494,9.03192550.79558,-0.641261,2.512174,10.16298150.825549,-1.240988,0.478604,10.6924650.865527,-0.11285,2.443783,8.48908350.895525,-0.806065,3.195356,9.40997650.925494,-1.842264,3.321837,4.85366650.99547,-3.888548,1.206909,-12.29798751.015442,-3.635313,2.16709,-13.5823251.025422,-2.880507,2.554119,-13.49019851.0654,-0.856639,2.031506,-8.46599451.095398,-2.806206,-1.347173,-9.65871951.125367,-2.835585,-6.588422,-9.24600151.165345,-2.842279,-3.461703,-3.66397651.195313,-1.638058,-1.217875,-0.94181651.225312,0.683122,0.697561,-1.25381751.26529,-0.200721,-3.167798,-0.02745251.295258,-1.595097,-6.523542,1.07206351.325257,-1.726983,-2.505065,1.42886251.365235,-3.496703,-1.283076,4.32768751.395203,-4.315359,3.512319,6.74009951.425202,-2.941637,6.613948,7.8346251.46518,-0.957587,5.652149,8.73642851.495148,0.772433,3.78637,8.51359751.525147,1.426977,0.675788,7.8089751.565125,-1.302866,1.260985,5.59783651.595093,-2.237959,4.442341,0.02823251.625092,-2.687288,4.453483,-4.0483351.66507,-3.387388,1.070179,-8.62397551.695038,-3.345008,-0.068797,-10.09303451.725007,-2.028634,0.804058,-8.49831451.764985,-1.268628,-1.963327,-8.34315251.794983,-0.410615,-4.792276,-9.6974251.824952,-3.999803,-4.369127,-3.33503551.86493,-3.371744,-2.725793,0.53828951.894929,-1.400605,-1.318956,0.00803251.924897,0.687698,-1.805486,0.12276551.964875,0.858742,-6.442741,0.74745451.994874,-1.240137,-7.12774,0.62874552.024802,-1.449733,-1.479883,3.4687452.06478,-3.552734,2.477346,7.27482152.094779,-2.429213,4.117041,9.16034152.124747,-0.33635,3.734432,10.12014552.164725,-1.53379,0.397927,9.53627652.194724,-1.639826,0.44783,8.69701652.224692,-0.477943,2.933722,7.91570252.26467,-1.955724,3.499512,3.5292252.294638,-3.282665,1.073587,-4.71414752.324637,-4.366783,-0.383979,-10.09141252.364615,-1.977635,0.723377,-11.45161952.394583,0.027693,2.260589,-8.32327552.424582,-0.954813,1.210562,-9.68811952.46456,-2.552126,-1.676923,-11.21180652.494528,-3.966675,-0.423355,-5.47462852.524527,-3.374122,1.200792,-0.22601852.564505,-2.398131,-3.698072,-0.17343952.594473,0.47881,-5.323629,-2.25297452.624472,1.837496,-5.462212,-0.77465552.66445,-3.154653,-7.511386,1.84650552.694419,-3.163759,-1.647054,2.81601952.724417,-2.872049,2.118988,6.62412352.764395,-3.763507,4.059317,8.33616152.794364,-0.658043,3.959864,9.5047752.824362,-0.094736,2.069861,8.95685152.86434,-2.980554,-1.625736,9.109352.894309,-1.347642,2.498448,7.41070852.924277,-0.845154,5.201229,5.92848652.964255,-2.029494,3.692657,-0.45798552.994254,-3.29576,1.420049,-6.77321853.034197,-3.994114,-0.123337,-9.57275753.064165,-2.022457,0.969502,-8.1774553.094164,0.320834,1.558437,-6.46469753.134142,-0.176669,-2.308928,-10.87102953.16411,-1.365377,-3.689729,-8.65930153.194109,-3.155757,-1.645433,-2.23048353.234087,-2.928772,-1.943378,-0.31162853.264055,-0.286465,-3.574517,-1.49061353.294054,1.054004,-6.359479,-1.61693953.334032,0.991917,-5.396341,-0.42485853.364,-0.016923,-4.748387,-0.57344953.393999,-2.653304,-1.771576,2.60718653.473955,-0.879528,5.793191,7.7333353.493944,-1.096434,3.972105,8.74016853.533892,-2.930385,1.380818,10.55000553.56389,-2.323068,1.719517,9.70889753.593859,-1.345624,2.762184,8.26633153.633837,-1.632944,3.930011,3.40900953.663835,-2.285744,2.697826,-2.83207553.693804,-3.146541,1.646582,-8.82269253.733782,-3.146469,0.648995,-12.03658953.763781,-0.759013,1.183048,-9.93646753.793749,-0.051609,0.873,-7.88898353.833727,-1.626628,-2.607294,-12.12198353.863726,-2.613648,-2.962224,-8.16288853.893694,-2.232917,-0.716211,-1.96308253.933672,-1.118102,-0.637574,0.92297653.963671,-0.291722,-4.832125,-0.74196753.993639,-0.981661,-7.487179,-0.89107854.033583,-1.275037,-4.159141,0.6632654.063582,-2.222453,-3.921969,2.5270254.09355,-4.276983,1.777102,6.0147354.133528,-2.110803,6.36649,7.58973154.163496,-0.047852,3.956769,8.21499954.193495,-0.466355,1.668922,8.5032454.233473,-2.161743,-1.795758,8.78389754.263441,-1.394897,2.307928,7.86466654.29344,-0.67417,5.484593,6.33715554.333418,-1.6915,3.492432,-0.37622654.363386,-4.141434,-0.020489,-5.57694154.393385,-3.75232,-0.217809,-9.04111954.433363,-2.169367,1.506481,-8.74279254.463331,-0.351857,1.077862,-7.6168554.49333,-1.493529,-2.570024,-9.41044254.533308,-1.055762,-5.240327,-11.87397654.563277,-3.432549,0.710374,-3.68445554.593275,-1.811116,-0.939767,0.80747854.633253,-1.286232,-5.582344,-1.29511354.663222,-0.977634,-7.591904,-0.72924954.69322,1.293727,-7.774452,0.83074154.733198,-0.370224,-0.938724,-0.43786154.763167,-4.86661,5.512897,3.72762554.793135,-0.51862,7.334493,8.34486954.833113,-0.159,2.235146,6.82368554.863112,-2.248389,-0.865795,8.27074854.89308,-2.502635,-0.720843,10.17402354.933058,-0.821379,3.442364,9.37727954.963057,0.311229,3.794805,7.82808454.993025,-0.226235,3.453106,3.36531355.032951,-2.384189,1.081972,-4.13891755.06295,-3.122711,0.180534,-8.91958855.092918,-2.58946,1.335565,-9.24798955.132896,0.323112,2.995371,-7.12826755.162895,-0.591659,0.07879,-10.20646855.192863,-2.093711,-4.671606,-13.31889355.232841,-4.572853,-0.140622,-1.93201855.26284,-0.229607,2.051109,0.45206355.292808,0.456987,-1.797316,-0.87655955.332786,-0.595653,-9.824987,-1.47626455.362755,-0.439997,-9.374132,-1.49116755.392753,-1.127602,-4.133056,-1.6716455.432731,-1.723889,1.197444,3.63689555.4627,-4.788374,3.329389,4.70780555.492698,-2.903334,4.140639,5.45929355.532676,-1.020295,2.536538,7.66141155.562645,-1.804272,3.645592,9.35560655.592643,-0.552989,2.962254,11.09033355.632622,-0.026388,2.155443,9.8102455.66259,-3.388669,3.228401,5.82401255.692589,-2.806068,2.484052,-2.07558555.732567,-2.536935,-0.824643,-10.43852755.762535,-1.726778,1.288735,-11.72817655.792534,-0.217598,3.247362,-10.31651755.832512,-2.099874,1.411216,-8.07685855.86248,-3.128739,-2.00923,-10.10638155.892479,-4.355979,-2.296376,-6.45579855.932457,-3.459549,-3.034491,-1.38959855.962425,-1.098611,-2.115419,-1.31356155.992393,-0.247329,-5.627639,-0.68292756.032354,-3.071453,-7.276109,0.49067256.062353,-2.959043,-3.99147,1.30707956.092321,-1.965156,1.937574,3.86416356.132299,-3.278066,2.125274,7.63326956.162298,-2.27833,1.656429,8.75444556.192266,0.081926,3.605598,9.81372156.232244,-1.815455,1.63733,10.3797756.262243,-0.776581,1.279075,9.14574956.292211,-0.480988,1.079058,7.82186256.332189,-0.844574,5.00821,1.4040256.362188,-3.113511,1.89591,-5.94471556.392157,-4.034699,1.732105,-10.0536256.432135,-2.580969,2.731719,-11.62117156.462133,-0.420197,2.671693,-8.27266956.492102,-0.919212,-0.962798,-7.44696856.53208,-1.841807,-6.713342,-9.79671356.562048,-2.375663,-6.570145,-6.89559956.592047,-1.972167,-1.52124,-1.68650156.632025,-1.574722,-2.766266,-1.54605456.661993,-1.207753,-3.846862,-1.57840356.691992,-2.329609,-4.225226,-0.56987856.73197,-1.60881,-3.014602,-0.44106356.761938,-1.786896,-0.088168,-1.62038456.791937,-5.088407,1.818815,4.11809856.831915,-3.087748,4.765015,6.52018656.861883,-1.379253,3.906737,7.91661756.891882,-1.124644,3.153754,8.6269856.93186,-3.187893,-0.381765,11.50222956.961828,-2.845461,2.353005,9.64305256.991827,-1.713224,6.327232,9.87690857.031753,-1.969086,4.198897,2.26218357.061721,-2.772317,-0.858733,-3.36597157.091689,-1.565849,0.510443,-8.46134957.131667,-1.178561,2.701432,-10.17697257.161666,-0.359441,0.090115,-12.4286657.201644,-0.743024,-2.755976,-13.31937857.231613,-1.702014,-2.177885,-9.3258257.261611,-2.678929,-0.344189,-2.78046757.29158,-2.504781,-2.472013,-0.23215557.331558,-1.107923,-4.271661,-3.09792457.361556,1.256826,-3.356607,-0.37652157.391525,-0.876635,-5.098136,1.35501757.431503,-5.309867,-5.14174,0.9873857.461501,-3.679476,0.989764,4.39702857.49147,-3.48527,3.346517,8.06368357.531448,-1.702982,0.95648,8.53995957.561447,-0.525642,1.669324,8.53663257.601425,-1.604464,0.25042,9.82364157.631393,-1.94473,1.93181,8.02199657.661361,-1.108565,2.850657,8.50435857.69136,-0.272907,3.685098,4.69184757.741317,-3.678036,0.693142,-5.36831457.761306,-3.353687,2.034211,-8.55670857.791305,-2.508139,1.539759,-10.41371257.831283,-1.094113,-0.965398,-8.65558957.861251,0.263186,-0.957137,-8.85517657.89125,1.135128,-0.715168,-12.93652257.931228,-1.896081,-2.095035,-6.02720157.961196,-2.06115,-2.749814,0.22186857.991195,-2.135967,-2.208814,-0.79937458.031128,0.211706,-5.768562,-1.50469158.061096,-0.293156,-9.595067,-0.51645258.091095,-0.678438,-9.348584,0.16544558.131043,-3.918456,2.836148,-0.85924358.161041,-5.25374,6.530749,5.64430558.19101,-3.111721,4.603296,8.65274858.230988,-2.45889,-0.28184,8.84781758.260987,-3.337668,0.049543,10.17715358.290955,-1.672331,2.264595,10.73802158.3909,-2.729176,0.253373,-2.10625458.40091,-2.792941,0.147533,-3.90139158.430878,-2.500476,2.897077,-8.8964358.460877,-2.832933,3.876567,-11.16860358.500855,-1.078589,2.168165,-9.77673258.530823,-0.742648,0.147903,-8.96133758.570801,-2.970894,-1.945484,-12.34668558.59079,-2.298306,-2.407276,-6.20823858.630768,-2.78031,-2.265216,-0.92124858.660736,-3.360115,-3.440304,-0.12630158.690735,-1.496724,-4.713563,-0.85244358.730713,0.309826,-6.232949,0.46412458.760681,-0.504956,-4.842807,0.46357258.800659,-0.712856,-4.573843,-0.31062858.830658,-3.323516,2.340758,2.01905958.860626,-3.297737,5.826878,6.79607458.900604,1.038806,4.387733,7.73534758.970581,-2.236221,-0.842553,9.88758759.00055,-0.639141,3.177648,9.41878459.030538,-0.124536,3.979131,8.61312759.060507,-0.895283,2.983148,0.56184659.100485,-3.560097,1.300918,-5.80978659.130483,-2.257667,2.128314,-9.33042759.160452,-1.802354,0.555346,-9.11531359.20043,-1.215222,0.580474,-7.95607959.230398,-0.610275,1.197034,-9.53099259.260397,-1.213236,0.175128,-11.62242359.300375,-2.172093,-0.083943,-0.81187359.330343,-3.651758,-1.564956,-0.20911859.360342,-1.754445,-3.360528,-3.11822559.40032,-1.330846,-6.484883,-2.14038759.430288,-2.65987,-7.276953,-0.48761259.460287,-1.769629,-7.946634,0.1620759.500265,-3.077802,0.127764,3.22999959.530233,-4.655662,4.432329,5.43802359.560232,-2.473331,4.720708,6.95338359.60021,-2.262328,0.292008,8.98430259.630178,-4.859763,0.338266,9.95089559.660177,-1.495802,5.200527,10.34173759.700124,-0.24518,4.579202,9.54051459.730123,-1.177178,4.176365,3.67237559.760092,-2.04158,2.706802,-2.03242259.80007,-3.099982,0.401957,-8.68670259.830068,-3.336648,-0.292767,-10.85941259.860037,-1.555428,0.381606,-10.56179459.900015,-0.181568,-2.204873,-9.16017759.930013,0.017946,-4.798772,-11.67309759.959982,-1.034958,-4.722541,-7.3456659.99996,-2.000319,-2.730653,-1.60582860.029915,0.847255,1.172982,-2.42202860.059884,0.468537,-2.887496,-2.65301560.099862,-3.017852,-10.051849,0.0215460.129861,-2.328461,-3.912506,-0.42288960.159829,-3.252389,-1.889071,1.03057160.199807,-5.067428,5.641003,5.95926660.229774,-1.138973,6.51403,9.09365360.259773,-1.365579,0.142711,9.54578760.299752,-3.89345,-1.204749,11.37896360.32972,-1.54189,2.82414,10.71177760.359718,-0.394344,4.231079,10.37488660.399697,-1.594033,2.966132,5.09068760.429665,-1.890635,-0.533244,-3.3391660.459663,-2.551866,-0.278324,-9.99346260.499642,-1.933898,2.397749,-12.79773560.52961,-0.652378,2.510398,-10.24139360.559608,-0.809737,1.514633,-9.1994660.599587,-1.869424,-2.887444,-10.47585960.629555,-2.375978,-2.62228,-5.54485960.659553,-2.140815,1.780126,0.20974860.699532,-0.168141,-0.398633,-2.10703760.7295,-0.9373,-7.147706,-2.08747560.759469,-1.350451,-10.547424,-1.54987560.799447,-2.031915,-5.89996,-1.3376760.829445,-2.262521,0.07102,1.80935960.859414,-4.277505,3.27061,5.37635260.899392,-3.017044,2.048621,7.88413160.929391,-1.790144,0.861855,8.72995260.959359,-2.256664,1.581371,9.83969660.999337,-2.257743,1.517227,11.4327361.029305,-0.825861,3.55895,9.71776861.059273,-1.964425,4.435469,8.17830761.099251,-1.688482,1.356118,-0.80506261.12925,-2.727728,-1.504199,-7.33475861.159218,-2.518962,-0.109961,-10.64984361.199196,-0.19836,2.358675,-9.45343461.229195,0.481343,0.148597,-9.78093461.259163,-0.257579,-2.041299,-12.15300661.299141,-1.969808,-3.95465,-7.75156161.329109,-1.550696,-1.070657,-1.98341161.359108,-1.098559,0.620921,1.08945361.399086,0.702595,-4.985885,-2.48714361.429054,-0.11195,-9.632598,-2.28572561.459053,-0.772837,-8.213663,-0.48679661.499031,-0.817219,-2.344205,0.17033861.528999,-4.731969,-1.373033,2.82799461.558998,-5.225866,3.434258,5.58411961.598976,-1.585902,4.773374,9.30115761.628945,-3.948494,0.754473,9.34112461.658943,-3.390442,1.924313,10.19008561.698921,-1.283754,3.165499,8.95524361.72889,-2.637079,2.767813,7.59610861.758858,-2.461981,3.220285,2.07383661.798836,-3.034724,1.507712,-6.45638561.828835,-3.406211,0.137718,-9.7027761.858803,-2.368276,0.082476,-9.64197661.898781,-0.596923,0.471668,-9.53310661.92878,0.102469,-1.115232,-11.93259661.958748,-1.440406,-3.23084,-7.82071161.998726,-3.59277,-0.328928,-1.44003862.028685,-1.812314,1.110396,-1.32414262.058653,0.759653,-1.387562,-2.53998462.098631,-1.885707,-9.093714,-2.30445962.12863,-3.916918,-10.65959,-1.20094162.158598,-1.690691,-2.91412,0.5047862.198576,-3.678986,2.137221,4.48550762.228575,-3.140955,2.703455,7.49484862.258543,-1.174627,2.596207,8.46396162.298521,-0.992812,0.797894,9.46308462.328489,-2.004358,-0.377523,10.95803262.358488,-0.975927,1.468151,9.55397562.398466,-0.367587,4.047144,8.3526362.428435,-2.169081,4.425842,2.56559662.458433,-4.14857,0.437228,-3.05123762.498411,-3.150507,-0.707092,-9.51333162.52838,-2.649998,0.063021,-10.90961462.558378,0.148774,1.763448,-9.09890162.598356,1.022385,0.671954,-7.77076462.628325,-0.862142,-3.519749,-10.40097862.658323,-3.765612,-5.799125,-8.44781262.698301,-1.775768,-0.75763,-0.09755662.72827,0.303022,0.172377,-0.22270562.758269,0.368385,-4.792312,-1.91713462.798247,-0.159221,-10.684805,-1.13944662.828215,0.056257,-7.137519,-1.02531562.858183,-1.543566,-1.927636,-0.47942562.898161,-3.919137,4.604189,5.03585162.92816,-1.534184,6.747069,7.03114962.968138,-0.645264,0.187521,7.17770462.998106,-0.54296,0.684604,6.97288263.028078,-2.054919,0.573704,9.9997263.058046,-1.885991,1.299378,8.35813963.098024,-1.472288,3.385014,8.80424463.128023,-1.007455,5.091363,5.034263.157991,-1.874071,1.527498,0.88323363.197969,-2.616037,-0.759396,-6.68601163.227968,-2.789789,-0.754731,-8.17096263.257936,-0.563647,0.845216,-8.38834263.297914,0.220973,0.387228,-8.59939963.327913,-0.427782,-1.873314,-10.96504363.357881,-2.396711,-2.811654,-10.93110963.397859,-3.133344,0.766667,-0.37983963.427828,-1.026587,1.280125,-0.97456463.457826,-0.772653,-4.1521,-2.2526763.497805,0.890826,-9.575726,-2.43037763.527773,0.031353,-8.88128,-1.10919763.567751,-1.471248,-2.355754,1.00712463.59775,-3.091908,0.137684,4.46734863.627718,-5.32673,3.482568,4.86857763.657717,-1.827003,5.946695,6.64195763.697695,-0.916387,4.512488,7.82098563.727663,-2.842725,0.345608,11.10660363.767641,-1.826237,1.921835,8.51741963.79764,-2.141565,2.926902,8.38257863.827608,-1.998983,4.128408,3.13221863.857607,-1.967943,1.892361,-1.89233563.897585,-1.463828,-0.290695,-7.94391663.927553,-1.804209,-0.944926,-9.50301463.957521,-0.644214,0.203966,-9.18950463.997499,0.106304,-1.475039,-8.83016464.02746,0.535116,-4.061443,-12.53162264.057428,-0.211138,0.401207,-5.67974964.097406,-3.506284,-0.117511,0.64218664.127405,-3.241946,-3.462012,-1.5177464.167383,-1.025865,-6.721064,0.08477764.197351,0.453402,-5.960795,1.19409964.22735,-1.131353,-5.306224,-0.61963164.267328,-2.675776,-0.538274,3.99222864.297297,-4.118926,1.807925,7.08989964.327295,-3.641039,0.550057,8.46840864.367273,-2.017946,2.842025,10.45294764.397242,-3.273814,2.371959,11.78290364.42724,-1.636424,2.894538,11.11711164.467188,0.08692,2.865011,8.55842464.497187,-2.533092,2.354906,1.64870264.527155,-3.323332,0.499929,-4.19229164.567133,-2.581436,0.512663,-8.92080764.597132,-1.868277,1.214685,-11.27883364.6271,-0.967286,0.673847,-10.39017364.667078,-0.908211,-0.858892,-7.30487164.697077,-0.084388,-3.360737,-10.5440864.727045,-0.90665,-4.9023,-8.5855764.767023,-2.46234,-0.900025,-1.84523464.797022,0.219709,2.174565,-0.08895664.82699,-0.20631,-3.339512,-1.26241364.866968,-2.212032,-6.609411,-1.76976764.896967,-0.488716,-4.175507,-0.09938364.926935,-0.40113,-1.913411,-0.26826264.966913,-4.818044,2.573309,4.93869564.996912,-2.250215,3.117028,7.69588565.026851,-1.401169,2.305449,7.31111465.066829,0.367675,2.612414,8.54595865.096798,-0.702592,0.238699,9.72486265.126796,-0.789745,1.203826,8.27384465.166774,-0.982922,3.79627,6.94137265.196743,-1.030162,4.590131,1.80818165.226741,-2.869888,2.879778,-4.82808365.266719,-2.702996,0.665952,-10.46369465.296688,-1.660651,-0.400788,-11.03856265.326686,0.081645,0.16394,-9.35322965.366665,-0.74758,-0.170673,-8.75839165.396633,-0.193977,-0.914219,-10.15430865.426632,-2.965192,-2.378914,-6.68369165.46661,-3.70066,-2.570983,-0.15651965.496578,-2.265288,-2.248196,-0.44422665.526577,0.64735,-4.021655,-1.51804365.566524,-1.716092,-7.606152,-0.80291665.596523,-2.158477,-7.593047,0.03144565.626491,-1.24191,-0.800807,0.50994765.666469,-3.405152,3.744475,6.64478265.696468,-2.587992,4.108078,7.26687165.726436,-0.738045,2.749289,8.33879465.766414,-1.072898,0.951704,9.48584365.796413,-1.156029,-0.011127,10.34364965.826381,-0.105609,1.426148,9.08866165.866359,-1.421968,2.621879,7.08059365.896358,-1.687668,2.703839,0.93846565.926326,-2.444473,1.403967,-5.52980565.966304,-3.082488,1.078908,-9.93987665.996303,-1.846612,1.444439,-9.91212866.026236,-0.247923,0.542428,-9.10356666.066215,-0.281271,-1.753595,-12.61476666.096214,-0.987197,-3.82016,-10.06203466.126183,-3.188417,-1.68078,-0.89349266.166161,-1.362724,-0.423669,-0.7551566.196128,-0.011874,-4.75796,-1.74248266.226128,-0.486907,-8.505712,-1.21046966.266106,-1.503001,-8.875319,-0.99193666.296073,0.204089,-4.341966,-1.63799166.326073,-2.478034,2.349888,2.47404166.366051,-4.028985,7.378326,5.80397666.396018,0.332975,6.86433,8.56553666.426017,-1.04882,1.436858,9.63141566.465996,-2.309526,-0.070867,9.2432866.495964,-1.316915,1.556227,7.98719366.525962,0.059364,3.339592,8.20195666.565941,-1.224801,4.437918,3.29307966.595909,-2.753101,2.098921,-4.05168166.625907,-2.844206,2.088537,-7.84313266.665886,-2.223832,1.445519,-10.02631366.695854,-1.145327,1.357065,-9.50042366.725822,-0.780455,0.675277,-8.72293866.7658,-1.854931,-0.931771,-9.46763166.795799,-2.761644,-2.324316,-9.49058666.825767,-3.421843,-0.337929,-3.03346566.865745,-3.433332,-1.824685,0.26201966.895744,-1.105119,-6.013525,-1.32489166.925713,-0.338185,-8.009044,-1.46354566.965691,-3.194821,-4.692038,-0.74399166.995689,-3.249747,-2.879684,1.71317567.025596,-3.647573,2.49267,6.10082167.065574,-2.742686,3.918446,8.99289667.095572,-1.916615,1.980094,10.48016767.125541,-2.707014,1.502201,11.92813867.165518,-1.783622,2.198296,10.10446167.195516,-0.424966,1.8534,8.12082767.225486,-1.487285,2.009678,5.88765967.265463,-1.957533,3.068905,-1.48625967.295432,-2.928384,-0.212787,-8.33745167.325431,-2.764354,1.009224,-11.15499567.365408,-0.922265,2.243378,-10.66136967.395377,0.089009,0.663629,-7.89459667.425376,-1.109723,-2.686499,-11.48958367.465353,-2.208237,-0.564488,-10.53936467.495322,-0.906568,3.738004,0.25759167.525321,-2.512944,0.013209,-0.37337367.565298,-1.718366,-8.272852,-2.21232867.595267,-1.687273,-10.283498,0.91297267.625266,-1.485133,-5.405263,1.16975367.665243,-1.534249,1.673393,2.6093467.695212,-2.896496,3.915431,7.47695867.725211,-1.350368,4.608193,9.02908567.765188,1.341913,0.750782,8.76782267.795157,-1.027508,-1.664807,9.83370667.825156,-1.462058,-1.85382,11.67007867.865134,0.514297,1.184027,9.35477367.895102,-0.994023,1.228181,7.81612367.925101,-3.296078,2.600077,2.86390767.965049,-3.671702,1.30872,-3.24920367.995048,-4.43549,3.651729,-9.39802368.025008,-5.389782,4.473252,-11.15036168.064986,-1.387964,0.97301,-9.6327468.094985,0.033152,-0.762752,-8.71455468.124953,-1.138535,-0.367846,-10.33129668.164931,-2.223528,-0.323232,-5.01890268.19493,-2.495049,-0.867385,-0.54715268.224898,-2.792879,-3.417129,-1.77016768.264876,1.051339,-8.189297,-2.80964368.294875,1.38355,-8.293814,0.29332568.324843,-2.521448,-6.902902,-0.78024768.364821,-1.637192,-1.909562,1.77911268.39482,-5.232594,2.38298,5.3264268.434798,-3.684246,2.517443,8.01018968.464766,-2.262909,2.237646,10.1142968.494765,-3.680587,0.974432,10.65640568.524733,-4.294517,-0.082409,10.95465168.564711,-3.531058,2.276912,9.13221768.59471,-3.496715,4.450679,6.57600568.624678,-1.837455,1.177905,-1.02157168.664656,-2.790074,-0.344105,-10.3959268.694624,-1.717187,1.814109,-12.82870468.724623,-0.017948,1.207513,-11.3679768.764601,-0.232124,-0.048822,-8.4154968.79457,0.293042,0.396057,-11.05215368.824568,1.55753,0.84885,-8.66039568.864546,-3.18814,-0.599318,-0.09091268.894515,-4.54049,-3.880531,0.33687368.924513,-1.3715,-4.198572,-0.8441968.964491,-0.478928,-6.641466,0.53448768.99446,-0.909195,-7.49307,0.69897969.034389,-0.142318,-1.625626,-1.62439569.064387,-2.93392,2.56324,2.82910869.094356,-5.572034,1.192667,5.5708169.134334,-1.416572,5.505913,8.70593269.164333,-0.655259,2.299131,9.67184969.194301,-1.920466,-0.167534,10.13358969.234279,-3.6441,-0.030899,9.2216969.264278,-2.496342,3.499501,7.72745469.294246,-1.804164,5.827458,6.90939169.334224,-1.780672,2.901156,0.20789869.364192,-2.903046,-0.790899,-7.09058869.394191,-3.479258,-1.120807,-11.33776369.434169,0.555948,2.492446,-10.0186269.464137,1.289954,2.720873,-9.22012469.494136,0.613542,0.122704,-11.14255169.524104,-2.575709,-5.970399,-6.3496469.564082,-1.933251,0.794985,-1.70724869.594081,0.816031,2.488202,-1.53568869.634059,-0.153788,-6.172718,-3.83992869.664027,-1.140413,-9.768111,-2.12647669.694026,-0.227048,-5.237642,-0.85769269.723994,-0.578798,-1.300801,-0.859669.763972,-4.724782,-0.699776,4.74933369.793971,-1.911364,4.708513,7.60849869.833949,-1.428988,-0.110417,8.15281969.863918,-1.394281,-0.210446,9.14538569.893916,-3.584685,0.086307,10.53878569.923885,-1.682847,3.355721,9.66537269.963863,-1.636035,4.401672,7.60713469.993861,-2.479865,3.729736,1.43011870.03381,-4.80917,-0.39436,-5.97471270.063779,-3.324289,-0.070055,-9.88087170.093747,-2.420272,0.630895,-10.88526970.133725,-0.74649,1.040641,-10.32694170.163724,0.931787,0.227696,-9.29655170.193692,-0.509086,-0.34626,-10.62081570.23367,-3.003999,0.661385,-4.93020970.263669,-2.612701,-0.757997,1.15616470.293637,-2.750081,-2.143491,-1.05992870.333615,1.128946,-7.688599,-1.76847770.363614,-1.236833,-10.397031,-0.21828570.393582,-3.522148,-7.814273,-0.2356170.43356,-2.110349,2.27047,3.62567470.463559,-3.997966,5.747612,6.74721470.493527,-1.971068,6.635523,8.80295470.533505,0.768686,0.796034,8.5818670.563504,-1.889911,-2.718505,9.88797170.593472,-2.487394,-1.678684,10.10857170.63345,-0.561812,2.945246,9.20675970.663449,-2.597817,3.827396,7.36609470.693417,-2.148228,3.362602,-1.25059870.733395,-3.382666,2.099568,-10.61572170.763364,-4.449871,0.999523,-12.05118770.793362,-1.771441,1.362741,-9.77326470.83334,-0.300866,1.9759,-7.05424670.863309,-1.780602,-0.627153,-10.33646370.893307,-1.369868,-3.595118,-10.58533570.933285,-2.021744,3.264764,0.78251870.963254,-3.544615,-1.273445,1.46918970.993253,-2.258847,-5.792764,-0.4561471.033202,-0.616013,-8.295192,-0.23425371.06317,-0.467684,-5.415534,1.02872371.093169,-1.132076,-3.846575,0.4382671.133147,-1.84995,1.477094,2.71175971.163115,-2.370082,4.895477,6.60163271.193114,-1.569388,5.237162,7.30717771.233092,0.225813,2.121964,9.00268471.26306,-1.461397,-0.952472,9.6227871.293059,-3.16267,-1.73526,8.97779471.333037,-0.525962,4.46889,7.73061371.363005,-1.117837,5.956215,5.64381371.393004,-1.892505,3.175058,-0.09113571.432951,-3.438459,0.885277,-7.40309871.46295,-3.506,0.996299,-10.23344671.492918,-1.868251,2.078154,-9.6948871.532896,-0.883929,1.290004,-8.77709871.562895,-1.719603,-2.06726,-11.02043271.592863,-2.715907,-4.375674,-9.93416171.632841,-2.524865,0.752337,-2.03538671.66284,-1.385962,0.241413,-0.19785971.692808,-1.242758,-4.063469,-1.46458771.732787,-1.784988,-10.028455,-1.18654671.762785,-1.222831,-7.391223,0.08234971.792754,-1.869532,-1.613743,-0.14396471.832732,-2.597518,2.125508,3.37985771.86273,-2.116389,4.952411,6.9464771.892699,-1.621055,3.543154,7.60174271.932677,-0.481241,2.108547,8.43603371.962675,-2.221272,0.906355,10.62855971.992644,-2.467935,0.802579,9.82429572.032569,-0.665943,3.481997,9.10198672.062568,-0.959953,4.337039,5.48971872.092536,-1.7571,2.460913,-1.26521972.132514,-2.651441,-0.143109,-9.15551472.162482,-2.73963,-0.6463,-10.75767572.192481,-0.996907,1.950239,-10.55102872.232459,0.705077,2.76709,-8.26255372.262427,-0.452935,-0.564927,-11.11229572.292426,-1.284441,-2.490649,-11.91461772.332404,-3.349523,-0.669065,0.1142472.362372,-3.957097,-2.487328,0.2026872.392371,-1.594385,-4.277128,-1.46637272.432349,-1.431415,-7.913959,0.87355772.462317,-3.17632,-7.660991,1.01040472.492316,-0.959885,-2.358624,-0.56050372.532294,-2.644049,3.355097,4.3927972.562262,-4.728399,4.358445,6.69445772.592261,-0.935545,6.248712,7.84543372.632239,-0.361591,2.994381,10.36689172.662207,-2.838603,-0.771894,11.05200872.692206,-2.27169,0.184635,9.48969572.732154,-1.047518,4.292636,8.30442872.762152,-1.239542,5.245963,2.50097472.792121,-2.743877,2.847722,-4.02746872.832099,-2.99334,0.760296,-8.24517172.862098,-1.474004,0.977053,-9.05522172.892066,0.229116,2.183509,-8.22248172.932044,-0.204239,0.241539,-8.94795572.962043,-1.345223,-2.353603,-11.57716972.992011,-0.922458,-2.508216,-10.98635173.031958,-1.486664,3.079593,-1.50814973.061957,-3.285215,-1.668044,-0.0525173.091925,-2.654598,-5.255457,-2.59345273.131903,0.09623,-6.378073,-1.44402373.161902,-3.840945,-4.803066,-0.93584773.19187,-4.122763,-4.328768,-0.88663373.231848,-4.20043,3.549886,5.02929973.261847,-3.509414,4.369428,8.61403573.291815,-1.821637,1.108593,9.09308373.331793,-3.229099,-0.072416,10.39399973.361761,-2.904788,0.724591,10.30410573.39176,-4.010488,1.717817,8.69638773.431738,-2.630333,4.573637,6.78575273.461706,-0.270529,6.82501,1.66671473.491705,-1.579936,2.1329,-4.85951273.531683,-2.507422,0.472559,-9.2409273.561651,-0.723706,0.267329,-10.32448173.59165,0.319176,0.113673,-9.41283673.631628,0.77265,-0.196307,-8.76449273.661597,0.843474,-2.037231,-10.93032973.691595,-2.369582,-0.945649,-11.6033673.731573,0.512304,1.348138,0.90228173.761542,-1.66189,-2.231098,-1.51437573.79154,-2.835542,-4.417088,-1.31231173.831518,-1.662007,-8.013699,-0.20069473.861487,-3.273642,-5.56029,-0.63465673.901465,-3.204709,1.993189,1.57939773.931464,-2.022471,4.627223,6.72224773.961432,-1.375874,4.312392,7.89116373.9914,-0.060921,1.806401,7.48982274.031334,0.049981,1.632085,8.61265474.061333,0.168249,-0.418724,10.47589474.101311,0.42969,0.090582,7.94367874.131279,-0.76469,1.050182,8.00071974.161278,-0.846346,2.202124,3.35571174.201256,-2.076403,3.844936,-7.80186374.231224,-4.611892,3.618869,-11.64641974.261223,-2.902543,2.88965,-11.61950474.301201,0.609635,2.888598,-7.86079674.331169,-0.630079,2.537126,-8.55103474.361168,-2.477743,0.227499,-9.70538874.391136,-3.122325,1.354244,-3.7368674.431114,-3.858199,-4.44173,0.99329674.461113,-2.679511,-7.173936,-2.45309174.491081,-1.673709,-6.607843,-1.15515774.531059,-2.985387,-5.520997,0.78639874.561058,-2.156607,-3.077443,0.6931274.601006,-2.773826,0.196762,2.75739474.631004,-3.80771,0.895794,5.63471974.660973,-2.186335,1.767303,7.92323274.700951,-0.203804,0.952318,8.55194774.73095,-1.372095,0.904211,8.59611674.760918,-1.704199,0.091551,9.92671674.800896,-1.075913,0.777656,7.03167474.830895,-2.177152,1.82373,6.28007874.860863,-0.553565,5.333285,1.49277674.900841,-2.95697,2.817084,-4.64259774.93084,-3.538543,1.453326,-8.11933374.960808,-2.957498,1.478981,-9.90836175.000786,-0.025419,2.045966,-7.78803875.030769,-0.185923,1.25234,-7.97427875.060737,-1.938437,-2.26684,-9.90518275.100715,-4.414139,0.099445,-3.57097675.130714,-2.356473,-0.420084,0.28394175.160682,-1.106225,-3.20363,-3.37899475.20066,0.218176,-7.802509,-2.37378275.230628,0.304241,-6.784709,-0.73172775.260627,-2.565215,-5.801778,-0.61650975.300605,-3.367892,-1.541866,1.62808675.330573,-2.94729,2.769642,6.06286775.360572,-1.598959,4.534279,7.52593675.40055,-0.143795,1.577426,7.17945875.430518,-0.98524,-0.802847,8.53527875.460517,-3.234071,-2.978712,9.26269675.500495,-2.015793,0.849855,7.27954675.530464,-0.652188,3.658246,6.87550475.560462,1.342347,5.174357,3.4493475.60044,-2.127802,2.265518,-5.25000575.630409,-3.703762,1.733647,-9.8741375.660407,-3.225941,0.977957,-10.02365975.700385,0.268857,1.255619,-6.58907775.730354,0.043675,2.447239,-6.13167575.760352,-1.794778,2.391323,-6.55733675.800331,-2.032117,-0.032822,-5.1522775.830299,-3.151167,-2.503468,0.21433475.860267,-4.038915,-4.117474,-0.01080475.900245,-0.703805,-4.214561,-0.69310375.930244,-0.118726,-6.487981,-0.27933275.960212,0.08964,-8.153824,-0.3426976.00019,-0.227102,-7.05655,-1.99075976.030136,-1.642114,-3.080514,0.9665676.060103,-1.201788,5.796959,5.44066876.100082,-0.456729,6.630598,8.42552776.130081,0.124011,0.734762,8.56029176.160048,-1.778968,-1.162226,9.33917376.200027,-2.452226,-0.67257,9.35630876.230026,-1.046535,1.132281,7.52166276.259993,-2.430129,3.328819,4.43446876.299972,-2.218307,4.748842,-0.47550876.329971,-3.058622,0.608037,-4.53163776.359938,-3.464248,-0.514038,-7.62715376.399917,-1.804932,1.547108,-8.36751376.429916,0.24464,1.606798,-6.44010376.459883,-0.302406,0.117642,-7.94060876.499862,-2.41131,-4.729972,-11.68681476.52983,-2.446758,0.952897,-3.77173576.559829,-0.666765,2.301578,1.7304976.599808,-1.926665,-2.331387,-1.32975576.629775,-2.087749,-7.630896,-1.44067776.659774,-0.611821,-8.821361,-1.4143576.699753,-2.88993,-5.037389,-0.7548376.749709,-0.628885,2.234518,4.12760376.759719,-0.519338,3.679704,5.15192576.799698,-1.58395,3.586482,6.85560576.829666,-0.220293,1.116963,7.26332876.859664,0.89131,2.584557,7.35178676.899643,-0.81967,-0.719097,9.31027476.929611,-0.249632,0.144056,7.35717176.959609,-0.467526,2.191074,7.38679676.999588,-0.137551,4.755522,2.94653977.029556,-2.452717,2.350977,-2.67388677.059534,-3.66431,1.595683,-7.37516177.099512,-3.233843,0.696921,-10.23591577.12948,-0.881386,1.26941,-8.85375877.159479,-0.14465,1.568777,-7.43926977.199426,-2.573558,-0.801568,-9.37502277.239404,-3.937951,-1.081569,-0.03834777.259393,-3.613351,-1.824947,1.21236177.299371,-0.951378,-3.610219,-1.52932777.32937,0.307402,-6.106721,-1.7693677.359339,0.449468,-6.909949,-1.44093477.399317,-1.821956,-6.083555,-1.46652877.429315,-1.987881,-5.057132,-2.3906377.459284,-1.720367,-0.371052,3.00540677.499262,-3.07377,2.967628,4.97834377.52926,-1.58732,4.549867,5.80413977.559229,0.039093,4.315027,7.44382977.629205,-1.642803,-2.409841,8.66294877.659174,-1.636988,0.562534,6.74625877.699152,-1.370589,4.406246,6.27761777.729151,-0.277107,4.845588,1.30182477.759119,-2.46699,2.561564,-4.39913277.799097,-3.193327,0.221789,-9.28324377.829096,-1.983026,-0.255599,-9.14664477.859064,0.286243,-0.402404,-7.45677577.899042,0.491764,-1.002077,-7.98143277.92901,-1.485198,-2.554667,-10.01007577.968988,-3.264312,-1.262399,-1.00500377.998987,-1.922859,-1.700123,0.01697978.028955,-0.326841,-3.45849,-1.54245878.058921,-0.707455,-7.296481,-1.56389778.098899,-0.041955,-6.206762,-0.66799978.128867,-1.342102,-4.050554,-0.82199478.158866,-1.511028,-2.651745,0.51995578.198844,-2.628061,4.221648,4.55475378.228812,-2.115481,5.278978,5.91681278.258811,0.277427,3.891324,6.53153778.298789,-0.309162,2.769428,8.95387178.328757,-1.693983,-1.653401,9.84798278.358756,-2.303235,-0.500993,7.87151978.48867,-3.418525,1.038221,-9.36063678.498679,-3.054799,0.80354,-10.51397478.528648,-1.507743,0.53326,-11.36640178.558646,0.014479,0.463613,-9.09376478.598624,0.222775,0.215325,-7.28077878.628593,-1.21374,-0.12715,-9.6969478.658591,-3.086135,0.833466,-6.75505778.698569,-3.683418,-0.429112,2.69565178.728538,-3.508506,-1.734043,0.68736178.758506,-0.967954,-2.820849,-0.566678.798484,-1.040946,-7.172174,-0.29576878.828483,-3.490744,-8.982725,-1.16784978.858451,-2.629463,-6.322337,-0.85652778.898429,-1.322087,3.701757,4.56740478.928428,-2.397467,4.038077,6.33299778.958396,-0.219323,3.514539,7.53231978.998374,1.005877,1.90145,8.78027579.028373,-0.159164,-0.527417,10.39212179.058291,-1.148229,-3.122407,8.17380179.098269,-1.435211,1.579914,7.22713179.128268,-1.213719,6.021284,4.16437879.158236,-2.115853,4.344104,-1.79572679.198214,-4.388445,1.597794,-8.5274479.228213,-3.715787,1.448655,-10.49380479.258181,-1.70013,2.42186,-9.84025279.298159,0.880537,2.183159,-6.98447879.328158,-0.330987,0.122978,-6.7884879.358126,-1.786531,-2.032913,-10.31844579.398104,-2.474263,4.185049,-2.44642279.428103,-2.754033,0.077997,1.47922879.458071,-4.006007,-5.201954,-1.91968979.498049,-2.110791,-7.625917,-1.5387279.528048,-1.111156,-7.238213,-0.12741679.558017,-3.361995,-5.854169,-0.9359779.597995,-2.94988,-3.11013,-0.44678279.637973,-3.487537,3.547232,5.81577479.657962,-3.046612,3.942288,7.15225379.69794,-1.366694,1.317852,7.98391979.727938,-1.699262,2.195719,7.02558579.767916,-2.205245,0.832187,11.67010179.797885,-1.855133,1.574566,9.65298779.827853,-1.093359,3.728429,8.55637279.867831,-0.108901,3.650785,5.02933279.89783,-1.979546,1.94385,-3.46920379.927798,-4.387857,3.323206,-9.69663179.957797,-3.754491,2.34081,-12.25601379.997775,-0.728646,0.458874,-10.36535380.027743,-0.65999,-0.941567,-10.04378680.057721,-1.759352,-3.97843,-11.16164680.097699,-2.92546,2.9549,-4.04859780.127667,-1.269659,2.689449,1.67972980.157666,-2.607752,-2.397978,-1.38414980.197644,-2.634526,-9.869532,-1.69503180.227612,-2.585378,-9.231891,-0.54379880.26759,-1.76398,-4.363,-0.3607880.307568,-1.949103,-0.808502,1.91340380.327557,-2.814856,1.470012,3.77423780.357556,-2.406122,3.762125,6.30204380.397534,-0.781145,2.928288,7.60808780.457501,-2.538836,0.270637,10.12200480.46748,-3.036483,0.019337,10.37411280.497479,-1.777534,1.061955,9.18385680.527447,-0.782938,1.427014,7.940480.557446,-1.028853,3.258951,5.60376880.597424,-2.078712,3.027936,-2.88582780.627392,-3.125005,2.526424,-8.77819480.667371,-3.649902,1.763132,-11.07466180.697369,-1.934288,2.328752,-9.68785680.727338,-0.802849,2.043175,-7.24930280.777325,-0.450705,-3.571496,-11.80128480.797314,-2.581068,0.930795,-8.07486380.827283,-1.593411,7.091057,2.49979680.867261,-4.329009,-3.111226,-1.03753580.897259,-2.996077,-6.483254,-0.04368380.927228,-1.67785,-8.310055,0.66561880.967206,-2.156913,-7.128079,0.87276580.997205,-1.740494,-3.835666,0.39675181.027173,-1.113292,0.909773,2.53698681.067104,-2.32746,4.257253,6.34910381.097103,-1.179326,1.433447,7.10840881.127071,1.613691,1.667594,7.56691281.167049,0.246155,2.943945,9.91056381.197017,-0.37243,-0.443381,9.69933581.227016,0.494024,1.062446,8.12271881.266994,-0.96111,3.916133,5.67740981.296962,-2.240264,3.349478,-0.47131681.326961,-3.242194,1.561241,-5.64816181.366939,-2.922326,1.076939,-9.98981681.396907,-2.003603,1.903371,-10.08215981.426906,-1.319479,1.53924,-9.41655481.466884,-2.095107,-1.151968,-9.63318681.496852,-2.35594,-4.189933,-8.09219681.526851,-4.509573,0.504937,-3.01880981.566829,-3.228169,-1.862991,-0.00870181.596797,-1.180521,-3.877649,-2.47219881.626796,-0.396171,-6.000083,-1.92732681.666774,-2.481831,-8.161606,0.70949881.696742,-2.562486,-2.724415,1.12899981.726741,-3.267875,-0.376544,2.93295781.766719,-3.632543,1.086907,7.78487281.796688,-2.862975,0.880605,9.28082981.826686,0.162061,2.12972,9.7155281.866664,-1.96237,2.325685,11.02184181.896633,-1.22438,-0.568775,10.14126681.926631,-0.830904,2.169196,8.56658481.966609,-1.359912,3.832314,5.84558281.996578,-2.212952,2.429359,-2.78033682.026576,-3.463093,1.04916,-7.22071982.066537,-2.485869,1.972,-9.48906182.096506,-1.589177,3.246348,-9.47049982.126505,-0.608817,2.623785,-7.73899382.166483,-2.053059,-2.597791,-9.00926382.196451,-1.544294,-4.134571,-12.04381282.22645,-1.087284,1.38327,-5.30357182.266428,-0.665618,4.730699,1.43923982.296396,-2.211366,-2.352162,-1.71522582.326395,-2.019299,-7.367423,-2.93424182.366342,-0.181049,-11.854781,-2.22284782.396341,-2.355582,-9.68489,-0.87768582.426309,-2.943547,-4.562582,-0.61515182.466287,-1.843198,3.589314,4.88580382.496286,-3.960504,5.490837,6.76066182.526254,-1.819636,4.116368,8.64069682.566232,-1.20464,1.872818,7.21086182.596231,-2.330591,0.31683,9.22769782.626199,-2.917622,-1.57148,8.68400882.666177,-1.333831,2.746847,7.00663682.696176,-1.37594,6.850995,4.25613682.726144,-0.984536,4.674213,0.19128482.766122,-2.329128,-0.492488,-7.6869482.796121,-2.599505,0.580267,-10.94363182.826089,-0.98593,2.259245,-10.50966782.866068,-0.236361,1.487783,-8.00669482.896066,-1.431234,-2.094233,-10.12155482.926035,-3.982775,-2.101129,-6.97239882.966013,-1.624728,2.64122,1.28098882.996011,-1.08422,1.157796,-1.23039883.02598,-0.966824,-3.604782,-2.46049183.06592,-1.209499,-9.252565,-1.94221583.095918,-2.194689,-8.788832,-1.8260983.125887,-3.052535,-4.856415,-0.69021583.165865,-1.98926,0.125435,4.20425883.195863,-2.215732,1.316328,5.91181883.225832,-0.81033,0.84442,6.97103583.26581,-0.430519,0.147945,8.04721783.295809,-3.116954,-0.374208,10.179183.325777,-2.942996,0.612561,10.22408683.365755,-2.247144,1.733847,7.76915183.395754,-2.740665,2.296878,5.34098683.425722,-2.595303,2.213246,0.64743183.4657,-2.104943,1.954576,-4.74646783.495668,-1.882215,1.462812,-8.70992483.525667,-2.545916,1.634853,-8.96993583.565645,0.642509,2.049691,-7.04616183.595613,0.327258,0.886922,-7.98825583.625612,0.390276,-1.253245,-9.91820783.66559,-4.344184,0.86638,-2.54242683.695558,-2.432998,0.423246,0.1703283.725557,-0.929009,-1.827593,-1.80305983.765535,-1.47361,-8.070542,-1.99439683.795503,-0.687973,-9.618956,-1.69276283.825502,0.772561,-6.487962,-1.08854683.86548,-2.306478,-4.559258,-2.57925883.895448,-3.160317,-3.7906,1.02508983.925447,-2.273931,0.722388,4.52457283.965425,-2.393251,4.547274,4.94781883.995394,-1.00902,4.493002,6.95870384.025392,0.1077,5.216696,6.23669284.065322,-2.567029,1.310866,9.55330584.095291,-1.553589,0.796718,7.26671584.125289,-1.599905,2.436638,7.40190284.165267,-2.304869,5.751932,4.10844184.195236,-2.087897,1.90007,0.40482684.225234,-2.129099,-1.780795,-4.35144684.265212,-1.372505,-1.176206,-7.25298984.295181,0.830672,-0.565557,-7.22710384.325179,0.297297,-1.341923,-7.94901184.365158,-0.689187,-3.628567,-13.80915384.395126,-1.476508,-3.511894,-8.53414884.425094,-2.766309,0.990832,1.25166484.465072,-1.871853,-0.619503,0.21021384.495071,-0.45456,-8.407826,-1.9079284.525038,-1.037074,-11.020107,-0.50699984.565017,-1.538226,-5.643104,-0.13058484.595016,-0.452464,-0.258903,-2.09157384.624983,-0.652822,1.415939,3.7327984.664962,-3.101607,3.928983,3.92596284.694961,-0.757406,6.655057,5.31231684.724928,1.564025,5.161997,8.22051484.764907,0.553669,4.989279,9.8242284.794906,-1.073569,-1.29839,9.32881684.824873,-0.597554,-1.601857,6.73109184.864852,-1.89833,2.241195,5.12126584.894851,-1.746246,3.717946,1.86454384.924818,-1.896795,1.722561,-3.10320384.964797,-2.23798,0.182029,-7.76182784.994796,-1.619397,1.790665,-8.26902985.024763,0.549005,1.865819,-7.52000485.064716,-0.740703,-2.317448,-9.37703885.094715,-2.262421,-6.163424,-11.99478385.124684,-5.03485,-3.732749,-3.71272985.164662,-0.309207,0.628469,0.43648285.19466,1.708268,0.778412,-0.55076585.224629,1.278076,-3.767621,-1.74744285.264607,-0.39252,-7.496853,-2.00681485.294605,-1.410015,-9.326519,-2.70322485.324574,-1.075205,-5.737073,-2.57513685.364552,-1.113993,1.261197,4.40957785.39452,-3.810897,3.834343,4.23673785.424519,-1.754649,6.049907,5.74690985.464497,0.509124,4.81747,6.64919185.494465,-1.247945,3.236126,8.59184785.524464,-2.754606,-1.417017,8.37261285.564442,-2.588767,1.96887,6.90101285.59441,-2.779076,5.038485,4.87161485.634388,-1.226814,2.358671,0.1726285.664387,-2.091011,0.230587,-3.48456685.694355,-2.053444,1.256533,-6.91221585.724354,-1.348662,1.582276,-7.93616885.764332,-0.099564,-0.0311,-8.61155985.7943,0.0841,-1.523781,-9.50168385.824299,-0.298263,-3.139177,-13.09070985.864277,-4.226549,2.02691,-6.98593585.894245,-0.463017,1.830324,2.04542385.924244,-0.786231,-1.487609,1.205985.964222,-2.163741,-10.023647,-2.36102785.99419,-2.025737,-10.270847,-0.13805686.024189,-2.332262,-5.658777,-0.10046686.064141,-1.379577,-0.485539,0.14888186.094109,-2.488937,2.090528,4.69472986.124108,-3.35787,5.005632,5.54280786.164056,0.550622,6.034643,7.35452786.194055,0.572967,6.061573,7.91313986.224023,0.000513,1.328275,10.38908486.264001,-3.855032,-4.564823,7.44972386.294,-3.867161,0.92971,6.48386986.333978,-1.690639,6.902897,3.66335386.363946,-1.687791,3.938448,-0.66118686.393945,-2.523463,1.391802,-4.99700586.433923,-1.769978,0.571465,-8.34760686.463891,-0.324726,-0.634495,-8.00845786.49389,1.280775,-1.942669,-6.80649186.533868,0.926339,-1.819215,-7.62892486.563836,-1.79255,-3.436902,-6.61507486.593835,-4.252022,-2.080162,-0.47393886.633813,-2.188275,-1.929834,-0.39156886.663781,0.700117,-3.004165,-0.91687786.69378,1.283029,-5.730361,-1.00424486.733758,0.746776,-6.348127,-0.33744386.763726,-1.347773,-4.800412,-0.37048186.793725,-1.003557,-2.509798,0.35394586.833703,-3.32933,1.836162,4.18395286.863671,-4.636366,5.359071,5.01817886.89367,-0.327225,6.777032,8.89731886.933648,-0.597431,3.393385,10.06014486.963616,-2.195321,-2.803242,10.17616886.993585,-3.038361,-1.648317,7.3604487.033563,-2.900259,4.004476,4.08641687.063531,-2.279416,6.105496,-1.75786587.0935,-3.718247,3.581837,-5.57957487.133478,-3.543724,1.007514,-7.32022887.163476,-1.83157,0.815784,-8.31175987.193445,-0.146379,1.265472,-8.0951387.233423,0.056857,-0.132374,-6.83885287.263421,-0.725669,-1.530288,-8.16787.29339,-1.005374,-3.158021,-9.67968487.333368,-3.22208,1.557415,-1.53300787.363367,-2.348459,1.286006,0.9708787.393335,-1.934937,-0.845867,-1.15202387.433313,-0.149677,-6.780427,-1.15164787.463312,-0.064724,-8.97698,-1.40021887.49328,-2.110171,-7.391468,0.13953787.533258,-1.79671,-1.398144,1.67270287.563257,-1.777787,0.813173,4.57447787.593225,-4.310662,1.235419,5.60723287.633203,-0.280532,3.350345,7.67148887.663202,-1.109088,4.446657,9.09722487.69317,-2.796212,1.530649,10.36467187.733148,-1.623064,0.85356,7.75947987.763116,-1.974564,2.688536,6.23088387.793115,-1.121232,5.305133,1.80120287.833093,-2.813069,2.253214,-4.60930887.863061,-3.397115,1.310555,-7.76384587.89306,-2.367379,1.318585,-9.96803387.933038,-0.811995,1.953286,-8.99899587.963006,0.397781,1.937535,-6.87649787.993005,0.286141,0.207956,-8.61441988.032983,-4.056368,-0.403627,-11.08286288.062914,-2.768959,3.626642,1.20742388.092912,-3.026455,-1.361707,1.27817588.13289,-2.977221,-4.55506,-2.27903588.162859,-1.057279,-6.969771,-0.30145888.192857,0.018065,-8.172191,0.47385288.232835,-2.983844,-6.074215,0.68706188.262804,-3.456236,-3.326992,2.4643488.292802,-3.173943,1.904111,6.16446788.33278,-2.270053,6.330747,7.77968388.362749,0.709173,3.969555,8.92431488.402727,-2.359961,0.236449,10.03060188.432726,-2.668772,-2.31047,9.18629588.462694,-1.472036,0.378495,6.71258788.502672,-1.054861,3.861326,4.54019588.53264,-0.577873,4.282929,-1.40165688.562639,-3.477815,3.399402,-5.18807288.592607,-3.679772,3.614915,-6.70644588.632585,-2.665762,3.423569,-8.50158388.662584,-1.911197,2.395078,-7.48366188.692552,-0.736746,0.836156,-6.0811688.73253,-1.772083,-2.504215,-9.0147288.762529,-3.356676,-1.430875,-6.31207788.792497,-2.541308,1.966787,2.01432188.832475,-2.428609,-1.918024,-0.83086188.862474,-1.012715,-5.834366,-1.42274488.892442,0.681576,-7.675893,-0.32074788.93242,-0.016571,-5.222143,0.4103788.962419,-2.115641,-5.086829,-0.83555288.992387,-1.530128,-1.887048,1.4412889.032365,-2.162163,3.950806,7.27315589.062304,-1.154645,5.71482,8.51518289.092272,2.079313,5.650669,10.07321789.13225,1.27939,-2.178046,9.19328789.162219,-2.04264,-6.960988,6.83573589.202197,-1.565434,1.619428,5.71714489.232196,-1.414551,6.49382,2.95874489.262164,-3.32654,4.185237,-3.67264389.292163,-5.178126,2.892398,-7.25807289.332141,-2.688166,3.310672,-10.87610289.362109,-1.388664,2.449431,-9.57551689.402087,-1.30583,0.407554,-5.77186389.432086,-3.381632,-2.351694,-7.64799589.462054,-4.233319,-6.014337,-8.90121389.492053,-3.495913,-0.062346,-2.6905889.532031,-3.160264,0.537486,0.96390489.561999,-2.018566,-3.141326,-1.29118589.601977,-0.350196,-3.741857,0.30407589.631976,-1.885159,-4.904362,3.45624389.661944,-3.562384,-6.693909,3.94720189.701922,0.258998,-3.234664,2.33638889.731921,-2.32575,0.175429,4.11081589.761889,-3.468516,0.764701,4.99061589.791888,-2.249342,3.887586,6.16583489.831835,-0.584736,6.794104,7.72207489.861834,-1.162935,3.336281,8.68022689.891802,-0.336349,1.199208,7.91296289.931781,2.751266,3.692017,7.16678989.961779,0.24642,3.12199,2.89156790.001757,-3.417178,2.576859,-3.08516890.031726,-3.905317,2.724812,-4.73798490.061697,-3.50376,2.466696,-7.5041790.101675,-4.311178,-0.629893,-8.36719890.131644,-2.371844,-2.575457,-7.43218290.161642,0.460173,-2.992311,-6.99355790.20162,-2.767282,-7.155132,-6.38131490.231589,-4.347112,-2.479688,-1.76856690.261587,-1.259718,0.156953,-0.62139890.301566,1.456468,-1.540495,-1.55709490.331534,1.559294,-3.448373,-1.54338890.361533,0.555652,-4.621887,-1.26770890.401511,-2.393225,-5.430886,-0.39943690.431479,-0.996474,0.401397,2.33427490.461478,-1.692046,5.059692,5.63237190.501425,-2.651925,2.403348,7.06344690.531424,-0.773393,1.449301,8.63778690.561392,0.028116,3.302744,9.44401690.60137,-1.025012,0.135968,10.0218290.631369,-0.849064,2.171544,8.12719790.661337,-1.165583,3.423076,7.14677890.701315,-1.108719,2.776037,-1.86424390.731314,-3.751326,2.401946,-7.45217990.761282,-4.069895,3.880472,-10.5217790.841238,-1.420614,1.892226,-9.17543390.861227,-1.132335,1.180162,-7.39355390.901205,-0.902895,-1.397115,-7.61767690.931204,-4.444906,-0.402818,-8.4438990.961172,-4.251886,1.125254,-0.55872491.00115,-4.737123,-4.584253,1.39070491.031149,-3.122135,-4.502098,-1.06688491.061104,-1.342604,-5.166929,0.77997791.101082,-2.037691,-5.263722,1.56962791.13105,-2.003293,-4.559696,0.43135991.161049,-1.963658,-1.542831,2.02244691.201027,-3.890474,1.260969,5.05644191.230995,-2.847216,3.18484,5.88320491.260994,-0.358211,4.571746,7.08144191.300972,0.798316,4.423496,8.11721691.33094,-0.181286,2.136278,8.72536591.360939,-0.820958,-0.972632,8.120791.400917,-0.31974,2.252488,6.50444391.440895,-0.557176,3.988058,3.35674591.460884,-0.888174,3.089811,-0.10246491.510841,-3.300157,2.996499,-6.97379191.53083,-3.295625,3.360066,-8.5317591.560829,-3.226914,2.252979,-8.34251291.600807,-1.956892,-0.897862,-8.18944191.630775,-1.123593,-2.344855,-10.37845391.660774,-0.773653,-2.34817,-10.78357291.700752,-1.257531,3.897154,0.73621791.73072,-2.744013,0.493966,0.91498891.760688,-2.398324,-3.969858,-0.92341191.800667,-1.295674,-8.634477,0.1741991.830665,-2.088931,-9.242703,0.59060891.860634,-2.22691,-7.524334,0.08891191.900612,-1.24761,-1.000195,-0.01546891.93061,-2.285762,2.741626,4.25672791.960579,-1.859651,3.226479,5.41768192.000557,-1.874099,2.645918,6.32131392.030555,-0.291737,3.988742,6.57983192.060474,-1.306666,4.738969,7.84385492.100452,-1.431336,1.499098,6.78824492.13045,-0.421718,3.06324,6.69947792.160419,-2.14083,4.859966,4.14727292.200397,-2.174448,3.817348,-1.98772892.230396,-2.884395,0.4203,-7.0208292.270374,-2.384565,0.416292,-8.85077692.300342,-0.228791,1.688492,-7.65836792.330341,-0.231939,0.413415,-7.47280892.370288,-1.187836,-4.597315,-10.64711192.400287,-3.517504,-3.110958,-10.10238292.430255,-2.054304,6.121226,0.04558692.460254,-1.973001,2.447441,2.14517692.500232,-2.880326,-4.963213,-0.35863592.5302,-1.73104,-7.814579,1.13687792.560199,-0.988652,-8.823141,1.36964492.600177,-1.757169,-5.862546,0.1261492.630145,-0.896731,-1.991267,1.59748492.660144,-3.903364,2.072695,5.07923992.700122,-3.424509,2.514191,7.76983992.73009,-0.956042,2.125701,8.48760392.760089,-2.911284,2.121214,9.19714792.800067,-2.972308,2.192843,8.96441392.830035,-1.156747,2.014414,7.00793592.890003,-0.979034,3.996261,0.5387392.929981,-2.932499,1.858039,-8.02438792.929981,-2.932499,1.858039,-8.02438792.959949,-3.001566,2.370956,-10.53879792.999927,-1.469645,1.710158,-10.38554293.029926,-0.527271,1.812138,-7.68003893.059852,-0.112471,2.867355,-6.17021993.09983,-2.218779,-1.326318,-8.03118393.129829,-3.27314,-2.652639,-6.50286793.159797,-1.677071,0.968165,-1.79636493.199775,-0.946153,0.187243,-0.93056593.229774,-1.947248,-1.866636,-0.32190993.259742,-2.630353,-6.828873,1.82569293.29972,-3.414272,-9.444484,0.89066793.329719,-2.263654,-4.430127,0.81263693.359687,-3.077518,1.298748,4.98658593.399665,-3.394129,1.038431,7.41590993.429664,-2.535164,-1.055065,8.54148993.459632,-3.396127,-0.132622,8.70149493.49961,-2.229523,5.918152,9.84229793.529578,-0.587188,4.018383,8.1460693.559577,-1.840674,2.468156,6.6104693.599555,-2.562963,6.166079,1.24381393.629523,-3.45673,2.145369,-4.33079893.659522,-3.658168,0.158415,-7.71857793.6995,-1.18384,1.965451,-8.54155493.729469,0.319571,2.136662,-7.1932993.759467,-0.285944,0.22868,-6.21778193.799445,-0.131271,-3.921446,-7.87293493.829414,-0.291096,-7.610339,-8.86632293.859412,-4.302995,-3.104309,-3.25001793.89939,-1.055738,-0.565418,-0.72485793.929359,0.112395,-3.002014,-2.16804793.959357,-0.581431,-7.22208,-1.95022393.999336,-2.137381,-8.453876,-0.00809894.029304,-2.338062,-5.859019,1.06800994.059262,-0.961658,-1.61823,1.12571594.099209,-4.794994,1.163071,3.28830594.129208,-4.906473,6.408529,5.79156394.159176,-2.12097,6.342172,8.0902494.199154,-2.399275,3.090761,8.10651194.229153,-2.205354,1.899682,8.44501894.259121,-0.555623,1.931556,6.67668794.299099,-0.752382,2.738514,5.00345894.329098,-0.589948,4.784841,-0.41120294.409054,-2.50674,2.286601,-5.88806794.429043,-1.851447,2.645369,-6.72105894.459011,-1.456082,2.72757,-6.77933294.498989,-1.41042,0.372043,-5.95021994.528988,-1.268541,-2.368956,-5.72036194.558956,-0.70216,-4.608119,-8.108994.598934,-3.76719,-2.776081,-3.41224494.628933,-3.636958,-0.693534,1.49842894.658901,-1.145971,1.451795,-0.10157994.698879,0.81311,-2.021783,0.21968994.728848,-0.145199,-6.339859,-0.05095894.758847,-2.212316,-8.457723,-0.92819594.798825,-1.663445,-6.371486,0.2478394.828793,-1.790589,-0.187548,3.48015994.868771,-2.182363,2.2485,6.23426194.89877,-1.01453,1.144719,6.53471794.928738,-0.258456,0.765815,6.59202894.968716,-2.660062,2.124543,7.81438494.998715,-1.471544,2.41573,7.37361395.028683,-0.009642,2.955796,6.40679495.058666,-1.835956,4.737317,2.74808895.098644,-3.045589,3.399054,-2.97817895.128612,-3.799575,2.098646,-5.79736195.158611,-3.391118,2.388779,-8.61248795.198558,-2.361815,3.097202,-8.78989595.238536,-0.759172,1.647299,-6.19590695.268535,-1.076298,-0.423749,-6.38772195.298503,-2.661112,-3.350392,-9.49199895.328502,-4.589455,-2.380526,-4.79412695.36848,-3.011618,-2.733204,1.35555695.398448,-1.963204,-4.597941,-1.15685895.428447,-1.424431,-7.589528,-0.62225695.458415,-0.912471,-8.806507,0.1744295.498393,-2.09569,-5.761894,0.1635395.528392,-0.954856,-3.097216,0.03700195.56837,-2.431263,2.901059,2.63712695.598339,-3.880033,4.222399,6.60863995.628337,-2.674019,4.794422,7.52141595.658306,-0.95091,4.064861,6.54451495.698284,-0.698957,2.757031,7.73264795.728282,-0.192088,0.749,6.23338395.758251,0.287428,1.584217,5.55353695.798229,-2.158011,3.141753,1.24393195.828197,-3.003589,1.266413,-3.02965495.858196,-2.167864,2.285467,-4.64512695.898174,-1.171261,2.572221,-6.00960895.928142,-0.840766,1.821903,-5.81595795.958141,-0.283534,0.563659,-4.91682395.998119,-0.036472,-1.902597,-5.53867896.028087,-0.523722,-4.388125,-7.81073396.058034,-3.297538,-1.146158,-1.23822496.098012,-2.565064,-1.447659,0.60318896.12798,-1.048299,-3.774617,-0.76275396.157979,-1.129503,-5.486624,-0.00175396.197957,-0.86457,-7.236953,0.1464196.227925,-1.073643,-6.740397,-0.46628596.257924,-1.354955,-6.651602,-0.87712896.297872,-1.785489,0.250975,2.24697296.32787,-2.270718,5.310178,4.19369196.357839,-1.663765,4.561055,4.67486996.397817,-0.145262,2.742348,5.00646496.427815,-1.431753,3.092323,5.12084396.457784,-2.214034,1.889334,6.15072396.497762,-0.28966,2.871028,4.82923396.52776,-1.169333,4.503883,2.85920796.567738,-1.518996,1.961639,-1.46120596.597707,-1.061613,1.976101,-4.42707496.627706,-0.745482,2.996028,-6.57087796.657674,-1.025608,2.759886,-7.2374396.697652,-0.167986,0.8161,-5.50922496.727651,0.0088,-1.397604,-5.69630996.767629,-0.308187,-6.27467,-10.50823696.797597,-5.632616,-1.456464,-3.9760596.827565,-3.847341,0.924535,0.88801596.867543,-1.283109,-1.760019,-1.55839996.897542,-0.420399,-5.043732,-0.78767196.92751,-0.808269,-7.021701,-0.24698396.957509,-2.665671,-6.706274,0.17162396.997487,-1.812182,-4.369144,0.58994297.027455,-0.973186,-1.198242,2.37064897.067402,-4.101248,3.097534,4.71639897.097401,-1.913391,4.108693,5.91591597.127369,0.419315,4.326106,6.24696297.167347,-2.137453,4.244227,8.590397.197346,-2.821948,0.892453,7.93650197.227314,-2.181608,1.274996,5.51833597.267292,-1.857327,5.440098,4.1061697.297291,-1.102997,4.47252,0.22758497.327259,-2.442457,1.346352,-3.66803597.367237,-2.076166,0.68633,-6.55155397.397206,-0.331316,1.196859,-5.77890497.427205,1.282555,0.867594,-4.7763197.467183,0.163408,-1.026442,-5.67114397.497151,-0.536484,-2.636889,-9.64031597.52715,-1.975975,-3.338396,-4.3182497.567128,-3.287077,-2.367347,1.45354697.597096,-0.591176,-1.480745,-0.15417897.627095,0.131356,-4.64454,0.15455997.667073,1.002362,-8.369508,-0.31520197.697041,0.455943,-9.453772,-1.07197.72704,-1.670487,-8.660743,-2.44969397.767018,-0.920656,-0.419793,3.33840797.796986,-3.463741,6.755852,4.34308897.826954,-3.61471,7.120599,4.31239597.866932,-0.466012,4.036516,6.85350897.896931,-3.023199,2.89961,6.94018997.926899,-3.512143,-0.193921,6.5799197.966877,-2.208759,3.471937,4.96550997.996876,-2.877834,6.529338,2.6135298.036854,-3.593642,1.043168,-3.48978498.066791,-2.823367,-0.822044,-5.6614598.09679,-0.928404,0.341524,-6.59480298.126758,0.307146,1.553904,-6.30245298.166737,1.497359,0.071987,-4.10807598.196735,0.94131,-3.067677,-4.60523898.226704,0.39111,-7.415172,-10.2881198.266682,-4.373594,-4.732713,-4.95052498.29668,-2.987833,0.849723,-0.01219798.326649,0.732648,2.039842,0.03934398.366627,0.573649,-3.983663,-0.01710698.396595,-0.983905,-8.185031,-0.00583698.426594,-0.991541,-7.377591,0.72203898.466572,-0.201857,-3.152095,0.38204198.49654,-2.324317,-2.414247,0.69868798.526539,-3.506732,1.061782,3.29258998.566517,-2.662918,3.114957,4.9696398.596485,-2.759202,2.606337,4.27849798.626484,-1.890735,5.108037,6.4800598.666462,-2.870327,3.518464,8.03765598.69643,-1.313638,2.840478,6.53435298.726429,-1.381514,3.42556,5.14047298.766407,-1.910239,4.186913,0.61073298.796375,-2.638275,1.498865,-2.62808298.826374,-2.547504,1.105628,-4.94779698.866321,-1.475418,1.268337,-6.82270798.89632,-0.346213,0.687385,-6.81821998.926289,-0.649752,-1.385171,-8.03623998.966267,0.44297,-3.969151,-10.11044698.996265,0.733297,-2.842988,-11.63196299.026234,-0.371321,3.358845,-2.77189999.066171,-3.52905,-2.058282,1.50697599.096169,-2.68278,-5.400397,-2.16980899.126138,-0.481743,-7.657695,-0.21203499.166116,-0.898738,-9.620914,0.26577199.196114,-1.310329,-6.769528,0.17098399.226083,-1.864573,-3.540916,2.57445399.266061,-4.451556,5.22343,5.34243899.29606,-3.410808,5.144663,8.20875199.326028,-2.632413,1.133096,8.57152299.366006,-2.790413,-0.570059,8.15740599.395974,-2.859052,-0.161386,8.0256699.425973,-1.686944,2.706168,6.86596399.465951,-2.812431,5.727231,3.35303299.495919,-3.486425,3.667484,-2.9116199.525918,-3.933975,1.327757,-7.05379299.565896,-2.24917,1.484216,-9.73632599.595864,-0.699838,2.379096,-8.705299.625863,1.009769,3.372466,-5.76528399.665841,-0.663464,1.439225,-6.66315199.695809,-1.464779,-3.314202,-7.2012899.725808,-4.011444,-5.189964,-4.21736999.765786,-3.754752,-4.066202,0.2880499.795754,-1.050005,-2.494347,-0.74672399.825753,0.123516,-3.059107,-0.65300199.865701,0.83765,-6.253622,-0.31518799.895699,-1.358276,-8.802496,-0.2978199.925668,-0.851889,-6.289245,0.82298899.965646,-1.003479,1.092708,2.3483499.995644,-5.299337,0.475481,4.55919100.025613,-3.5894,4.906858,5.622697100.065563,-0.061897,7.74991,6.664548100.095562,0.205411,3.67099,7.669595100.12553,-0.438288,-1.871758,6.546626100.165508,-0.863141,-1.507401,3.585162100.195507,-2.229808,1.621349,2.46105100.225475,-2.037091,3.880063,-0.710014100.265453,-1.915909,4.157687,-3.263186100.295452,-1.599556,2.268701,-5.699893100.32542,-0.945731,0.419012,-5.962746100.365398,-0.451339,0.208229,-5.008168100.395366,-0.279545,-0.296513,-4.827209100.425365,1.274784,-2.494648,-7.345266100.465343,-4.333716,-3.008114,-5.556721100.495311,-3.772654,-0.77611,-0.401019100.52531,-0.237043,0.009509,-0.709164100.565288,0.177359,-5.283971,-1.067589100.595256,-0.402994,-7.576817,-1.09415100.625255,-0.447579,-4.576143,-0.805952100.665233,-2.350074,-3.828271,-1.363141100.695201,-2.427758,-1.53312,2.086813100.7252,-2.144612,4.08534,5.716836100.765178,-0.159757,3.707259,6.164135100.795147,0.572193,2.0678,7.007552100.825115,-1.119591,0.990189,8.767941100.865093,-2.66401,-0.792606,7.109827100.895092,-2.026924,1.604732,4.862205100.92506,-1.858289,4.367615,4.345659100.965038,0.408307,3.000005,-0.142045100.995037,-1.882531,1.069964,-4.440278101.025005,-2.466497,1.929375,-8.299506101.064962,-1.762081,1.097131,-8.679053101.094961,0.513685,-0.541105,-6.12152101.124929,0.655646,-0.126472,-6.386745101.164907,-0.60784,-1.969691,-10.543053101.194906,-4.033739,-2.534979,-2.631764101.224874,-4.284206,-2.384325,0.770127101.264852,-1.050481,-1.929886,-1.221348101.29482,0.165283,-6.720979,0.276575101.324819,0.592513,-9.828102,0.593992101.364797,-0.552569,-6.871324,0.03741101.394765,-1.969396,-3.485488,-0.807811101.434743,-2.061791,2.40228,4.085223101.464742,-4.54358,3.733646,4.834624101.49471,-1.90942,4.632693,6.624512101.534689,-0.21799,3.691979,7.910721101.564687,-2.027377,1.890041,8.364103101.594656,-1.54347,-0.026212,7.589619101.634634,-1.541236,1.142853,5.064393101.664632,-2.941565,2.710208,1.878709101.694601,-2.578015,2.885553,-2.337989101.724599,-3.052921,1.939291,-3.833356101.764547,-2.343858,2.576596,-6.139676101.794546,-1.853347,2.543045,-7.210953101.824514,-0.438986,0.969266,-6.277942101.864492,0.273949,-1.719277,-7.336986101.894491,-0.373875,-5.491886,-11.987876101.934469,-4.243234,0.671285,-0.607642101.964437,-1.761228,2.329913,0.378466101.994436,-0.028932,-3.919595,-1.720927102.024404,-0.17488,-8.434232,-0.891664102.064344,2.221699,-7.51453,-0.172623102.094343,0.587101,-5.188543,-1.484445102.134321,-3.633979,-5.794673,-1.22291102.164289,-2.428084,0.269199,3.319207102.194288,-2.788702,3.900052,5.121255102.234235,-2.810464,2.477028,6.016297102.264234,-1.308655,2.567523,5.766227102.294203,-2.444045,3.156796,8.770805102.334181,-1.702273,1.763762,8.07102102.364179,-0.524365,1.345235,6.585966102.394148,-1.76479,2.663577,5.148298102.434126,-1.567358,3.734707,-0.382994102.464124,-2.882573,2.20285,-5.918424102.494093,-3.928817,1.321834,-9.063394102.534071,-1.536659,0.569531,-7.144608102.564069,0.019867,0.005036,-6.163403102.594038,-0.455338,-0.454859,-7.503473102.634016,0.560098,-2.243789,-9.769869102.664015,-4.122692,-3.827594,-3.106937102.693983,-4.582746,-3.210204,0.623294102.733961,-0.528642,-1.023917,-0.113143102.763929,0.925096,-4.912382,0.077496102.793928,0.727203,-8.284238,0.383292102.833906,-0.931709,-8.89153,-0.509644102.863874,-1.220657,-4.927326,-1.937183102.893873,-1.67827,2.143399,0.897806102.933851,-3.009332,4.707335,6.086045102.963819,-2.085511,4.909108,5.408476102.993818,0.703585,4.458213,6.521733103.033796,-1.716977,1.997742,8.447977103.063728,-1.412803,-0.194523,7.940024103.093727,-0.74628,0.319056,6.259938103.133675,-2.298648,3.432818,3.768422103.163673,-2.189035,4.442366,0.314897103.193642,-2.448022,2.430313,-2.083567103.23362,-2.617251,1.889854,-5.406615103.263618,-2.739619,2.024194,-6.195216103.293586,-1.034176,1.271226,-4.83049103.333565,-0.733674,-1.378279,-4.474194103.363563,-1.068675,-4.928906,-9.909285103.393531,-4.015585,-4.485586,-7.666914103.43351,-1.221604,2.028709,0.457729103.463509,0.705945,2.975555,0.146624103.493476,0.562225,-0.75115,-0.950038103.533455,0.37153,-6.036203,-1.188905103.563454,-0.253451,-7.720303,-1.359508103.593421,-1.714426,-8.747692,-2.170396103.6334,0.353925,-2.849639,-1.220117103.663368,-0.455494,5.717,4.473921103.693366,-0.733574,6.193985,5.590837103.733345,0.546734,2.219846,4.809202103.763313,-0.32417,-0.164588,5.924148103.793311,-0.622684,-1.174882,7.859779103.83329,-0.754634,-3.89177,5.865888103.863258,-2.443156,0.7377,5.631539103.893257,-1.033949,7.844721,3.877735103.933235,-0.49889,4.808007,-1.326022103.963203,-2.88632,-1.17092,-5.383288103.993202,-2.459619,-2.304885,-8.209194104.03318,1.181033,-1.068959,-7.053544104.063098,1.604417,-0.29326,-6.111287104.093067,0.284953,-1.117624,-8.995964104.133045,-1.705269,-1.767534,-11.379024104.163044,-3.780951,0.083404,-0.639939104.193012,-1.832255,-0.839925,0.492178104.23299,-1.293271,-5.558491,-1.679256104.262989,-0.202767,-9.897508,