time_tick,acc_X_value,acc_Y_value,acc_Z_value0.032197,2.192568,-2.574607,-8.5721470.064264,1.067253,-0.988691,-7.9092280.097528,0.177477,-1.951494,-8.6092580.130923,0.837103,-3.519752,-9.790390.164212,2.158899,-0.430074,-7.4197460.197526,1.166916,-1.088204,-9.4875120.230854,1.929347,-2.329492,-9.2597560.264195,2.943477,-0.705267,-9.7540270.297572,1.520522,-1.265231,-10.8485150.330999,1.465004,-0.27669,-11.8741680.364443,1.879515,-0.351362,-11.5302880.39667,-0.218628,-0.515071,-9.7995180.430638,1.084462,-1.076531,-9.1747590.464263,1.389584,-0.787122,-10.3053110.497601,0.07123,-0.338193,-10.1378610.531349,-0.03756,-0.49023,-9.2718770.564246,1.784342,-1.415473,-8.3451380.597593,1.132199,-0.985399,-6.8847730.631135,0.55727,-1.443606,-7.0128670.664262,0.413015,-2.656611,-6.4270150.697632,0.939907,-3.132326,-5.6238810.730644,0.935867,-3.132625,-5.7198020.764265,-0.539612,-4.321688,-7.2460110.797598,0.090983,-3.882786,-8.361150.830971,-0.013169,-3.40737,-8.1410250.864246,0.149044,-4.471182,-8.5131870.897746,-1.04765,-2.788147,-8.9850110.931003,-1.849138,-4.173841,-11.2959470.964695,-0.759139,-3.875752,-11.932080.997567,0.195883,-4.596732,-10.314291.031017,-1.130552,-5.245584,-10.8351971.064255,-0.380841,-6.393944,-12.4538851.09709,-1.334815,-6.882378,-14.6911961.130967,-5.931098,-5.583478,-17.9939661.164118,-1.471738,-8.9898,-14.2573811.197528,-3.858693,-5.467205,-9.9418281.23115,1.481764,-8.969898,-8.4554251.263788,-4.014322,-5.382507,-10.988881.297591,-4.280686,-0.128244,-6.1739691.330846,-2.548419,8.960021,3.0902761.364268,-2.305399,7.801785,0.8140581.397522,-6.445122,16.694766,-0.8016371.430636,-8.094935,16.888853,-3.1026971.464179,-12.797315,16.087964,-5.792081.49759,-12.917329,12.228373,-7.0682351.53052,-22.377756,13.931609,-14.8619391.564195,-31.991118,8.950743,-36.5390671.597697,-24.165241,1.060071,-29.1724441.630561,-7.043993,-12.96716,-13.9307111.664187,2.56054,-17.374444,-9.9526031.697681,5.858072,-20.375982,-5.4462551.730898,5.853583,-18.618575,-2.2527251.764193,-0.552033,-13.61272,-6.1416461.797522,-9.32096,-11.113383,-10.3005231.831302,-20.246691,-7.559962,-12.2237341.864472,-48.249375,-9.167426,-21.4100151.897516,-57.810811,1.072192,-15.3846421.931122,-40.30977,13.483129,-8.0614151.964195,-8.560774,20.707441,-0.968191.998089,3.628542,24.139652,1.5583822.030414,8.95613,24.109574,3.0946162.064237,6.377782,19.683584,3.2584752.097504,-2.111163,14.767813,-0.1457522.130921,-9.269333,10.841631,-2.1048782.164267,-11.339045,6.121145,-2.8951422.197583,-17.635571,4.727221,-3.7123422.2307,-30.294616,2.847705,-8.1387812.264217,-41.044367,-5.549209,-14.702122.297389,-27.192967,-5.217601,-11.533582.330767,-13.747847,-6.10199,-5.9695562.36426,-2.900829,-6.798578,-2.3538842.397696,4.715848,-6.2865,-0.1764292.430624,6.70161,-6.77673,-1.0076962.46437,5.14682,-7.51881,-3.1194572.498024,-0.308564,-9.406406,-6.5459812.532453,-5.795372,-8.93548,-5.6846362.564211,-9.875088,-8.542368,-5.9544422.597668,-26.537082,-18.676787,-11.8201472.630904,-53.86772,-17.059895,-19.1061122.664157,-29.302633,0.0838,-9.4366342.697557,-6.820277,11.729313,-0.4261832.73096,5.283144,22.681381,1.6523572.798748,6.639957,31.775782,5.8405642.830815,-9.995251,24.293186,2.0406812.864145,-17.754986,16.318563,3.7695062.897489,-23.150213,13.029561,4.4345192.94124,-51.072988,3.140257,-4.0550252.974223,-59.346298,-13.953756,-11.437362.999564,-33.417515,-10.987084,-9.417183.030825,-7.998266,-8.271215,-6.2299353.06417,4.762237,-7.849521,-4.8357123.097498,8.616591,-10.736732,-4.7641823.129989,8.224676,-18.885389,-7.141713.16705,4.01492,-23.819416,-7.8785523.197512,-9.336672,-24.728647,-9.8511453.23119,-18.821791,-21.465533,-10.3066583.264192,-45.470207,-39.065488,-14.2509473.297641,-54.407332,-19.870937,-9.4334913.330605,-29.483701,8.51618,-4.8792583.427362,3.361878,58.455773,4.0001063.466387,-22.553586,51.714807,-0.7562953.501887,-47.251855,35.028122,0.196783.535851,-52.582586,24.934256,3.6393163.569659,-75.772604,10.824722,-6.5615443.601553,-64.284066,-13.053055,-14.6635123.635051,-30.729179,-10.066481,-11.9144223.664136,-9.466862,-17.203402,-10.2310883.697603,-2.620098,-22.123961,-7.7893643.730506,12.333123,-21.651688,-7.095323.764356,11.009232,-22.84105,-11.7177913.797499,-4.164713,-26.171654,-10.536213.83128,-14.629394,-25.232494,-10.7451123.864154,-25.756544,-24.263556,-10.9608973.90672,-51.698196,-21.304517,-13.3188213.956776,-73.320106,-6.260612,-16.9256653.969131,-65.606461,0.401043,-14.4917224.004147,-21.355994,22.944304,-6.4798394.036559,-5.141582,39.247005,-1.0419644.071686,1.780901,47.861052,4.1403214.10178,2.076595,50.176776,3.6280934.136771,-15.205669,35.075858,-0.6784814.169243,-30.279203,23.26469,-0.2258114.202385,-38.317274,10.456301,-3.0823454.235551,-68.440997,-4.106951,-12.4755834.268996,-62.283489,-21.676679,-21.9538174.301465,-26.501616,-14.455808,-12.5575874.330808,-5.944566,-13.051858,-6.2188624.363708,0.041451,-9.363458,-4.0930344.39748,9.551709,-9.0317,-4.2283114.430502,8.87682,-11.122661,-7.2949444.464167,4.351617,-18.006087,-7.7202294.497491,2.618602,-25.585502,-8.0775774.530119,-4.829128,-27.822664,-7.3060184.56417,-29.075774,-32.444686,-17.5519214.597565,-69.620633,-24.620155,-31.1481794.630861,-53.329304,6.260612,-21.3860724.664154,-25.815952,22.720289,-10.913314.697501,-8.095833,30.145123,-1.2860314.736765,3.476804,42.116858,9.5786454.764165,2.424365,40.698692,4.5940384.797497,-8.141474,35.292541,1.3937744.830041,-17.396441,26.332071,0.8882814.864222,-25.815054,13.488217,-1.2688234.921775,-73.697954,-8.715355,-17.4280164.931743,-74.155263,-18.537319,-21.6281944.964161,-25.922348,-14.78173,-11.5452534.997507,-5.495937,-13.310291,-5.9484575.03036,5.351681,-8.983964,-4.4720795.064191,14.659173,-11.412669,-2.9817855.09773,11.619775,-15.905998,-6.0599415.131431,6.170677,-20.803961,-10.0111135.164209,1.070097,-16.464765,-11.5790725.197591,-16.068809,-15.656842,-12.6888245.230781,-52.584382,-27.516794,-24.0826385.263904,-66.971055,-13.797379,-21.6458525.297602,-27.553307,12.848643,-5.4163265.3309,-5.464811,20.333035,1.1528495.364192,2.929261,29.096724,3.7974895.443948,-4.751313,28.377839,1.7843425.469807,-17.393449,22.250859,2.3191665.505058,-19.774118,14.45491,3.2367775.536942,-30.484363,2.299563,1.4670995.569676,-67.40876,-16.818371,-11.9726335.597556,-58.196142,-29.066197,-17.5959165.630806,-13.762811,-18.108143,-7.5937815.664172,2.582239,-11.828078,-2.4213735.697408,10.40228,-5.379215,0.6045585.73065,13.270337,-4.53912,-0.6687545.764176,8.497624,-10.341225,-2.4562395.797571,8.109151,-14.943794,-5.2611475.830924,8.177837,-12.780854,-7.6521425.864452,-6.420131,-18.863242,-12.3105275.897547,-46.589985,-43.924395,-27.5263715.931029,-65.608556,-24.826962,-23.6637875.964191,-17.210884,8.809929,-4.1919485.997761,-6.555708,22.725077,1.458576.030617,0.364081,30.821958,5.1095586.065234,2.398028,31.567928,7.2174296.097512,-8.158533,26.13948,2.9615846.131057,-13.887913,21.766764,2.2385096.164263,-14.557266,17.073961,1.8132246.197041,-26.384895,7.389069,-1.1181326.230841,-52.449254,-6.459487,-8.9710956.264165,-61.110738,-26.259644,-20.7738836.297626,-23.889599,-20.019832,-11.2079576.330952,-4.658684,-13.488366,-4.408936.364206,3.990828,-7.665759,-0.5756766.397594,10.124094,-6.80621,-1.3271836.431006,9.694319,-9.559191,-6.6011996.464278,5.755268,-14.632387,-7.5939316.497585,4.442151,-13.372393,-5.4471536.530229,-2.919235,-13.221403,-9.0963466.564993,-31.312936,-30.899772,-22.8833996.59757,-76.540123,-28.450716,-33.6780436.630984,-30.600636,3.418443,-10.7431666.664174,-8.793917,20.264648,0.5720856.697761,1.503163,29.784034,6.3260066.730513,4.98296,34.375828,7.1274946.764383,-4.407583,28.122399,3.4607926.797849,-13.361319,22.377307,3.6485946.830854,-13.824464,15.161674,3.7989856.864167,-20.189377,5.982426,1.8434516.897642,-43.904492,-6.706847,-5.2544136.930559,-64.972573,-33.629409,-23.0890096.963864,-37.50576,-27.251627,-19.7994086.997531,-3.547286,-12.886353,-5.4419157.030933,5.802854,-4.604214,-0.6451117.064234,11.403092,-1.133545,0.6439147.097545,11.86908,-4.593889,0.054477.130801,8.345288,-9.883917,-2.9310567.164136,5.782652,-13.46158,-6.2224537.197017,0.719184,-15.076976,-11.0699877.230843,-25.623362,-30.496784,-20.7756797.26414,-65.839604,-34.895837,-29.3071227.297551,-44.64298,-10.69992,-14.9906327.330693,-11.9026,12.331776,-1.4202617.364428,-1.021762,26.311121,2.3666037.397487,5.028153,37.833179,6.546287.430551,-0.762281,35.514461,4.5870057.464254,-13.472055,28.277728,1.7192487.498411,-18.999566,18.642369,1.751877.530629,-29.009782,7.031423,-0.8978587.565137,-56.653323,-8.951791,-9.6503247.596633,-62.219592,-25.397251,-19.5047617.630834,-30.542425,-20.596556,-13.7815177.664266,-5.037281,-14.486335,-5.5548967.697526,4.308819,-8.918121,-1.8373167.730614,13.84287,-9.000574,0.2980897.764274,17.928572,-13.092112,-3.7894087.797581,8.267174,-16.439624,-8.1862177.831301,-1.35771,-17.310098,-12.5385837.863562,-19.820059,-20.522333,-17.3160837.897502,-64.24486,-31.438487,-28.5457397.930953,-57.106292,-10.034906,-21.9156587.964176,-32.661219,10.366216,-10.1439967.997626,-2.002821,28.294488,2.1184958.030602,2.713924,38.665942,7.1010078.064313,1.583222,38.864368,9.9864228.097513,-9.723948,26.825593,3.8996958.130532,-18.359693,19.468847,1.1598828.164191,-22.306526,11.891526,0.1658048.197659,-42.33803,-4.68981,-4.5657568.230608,-56.929265,-18.814907,-14.0580578.264331,-41.688729,-23.213212,-17.2339298.297519,-18.619623,-14.222814,-9.3136278.330924,-4.400849,-10.195922,-3.0706738.364481,0.839497,-5.575397,-0.7193348.396968,6.231581,-5.243638,0.3176928.430839,9.936292,-8.416817,-0.192598.464333,8.604619,-15.421304,-2.3459528.49757,4.160523,-20.616608,-6.1600528.531485,-5.864657,-19.723539,-12.0067518.564249,-41.756817,-30.674111,-23.6690258.597821,-64.137715,-17.135315,-22.0600648.630642,-34.634112,2.465667,-11.4065348.663949,-10.663407,19.160732,-0.4128658.697617,0.507888,26.562072,5.6177468.73127,3.558809,30.768685,10.1121228.764171,-0.66217,26.678195,9.0878168.797591,-11.272005,21.279975,4.4813578.830897,-16.800713,15.010085,2.5428838.864469,-19.97449,8.63769,0.0016468.897803,-33.845344,-0.848476,-5.1589418.930832,-48.875182,-9.269483,-15.2056698.964269,-43.076518,-19.505808,-17.3924018.997508,-12.729228,-13.929065,-6.8012729.030668,-3.269848,-11.914422,-2.4483089.064141,3.473362,-9.20783,1.2004369.097504,8.419511,-8.730319,1.5289029.130858,8.102118,-11.602267,-1.1549449.164209,3.042241,-15.171251,-5.8245529.197626,-3.581854,-12.418868,-7.8188449.230677,-21.162057,-16.251673,-15.0174189.264472,-52.550712,-23.471197,-27.4370349.297475,-57.064841,-5.864208,-21.7098999.330615,-22.387333,14.395801,-5.6671289.363974,-1.9277,24.652478,3.4730639.397498,6.540893,34.593409,9.3092889.430927,6.339324,37.321101,10.6065429.463627,-8.545211,31.42038,6.1615489.496595,-16.708832,25.589991,2.5659289.530905,-20.791391,19.728776,0.2210239.564245,-43.216883,14.85745,-6.2227529.597524,-62.429541,-4.727071,-18.7034239.630998,-51.660636,-17.06169,-20.0005289.664278,-13.464573,-15.176638,-7.0778129.697521,-2.612018,-13.460533,-2.3062979.730643,6.595812,-11.420001,-0.6299979.76428,12.241691,-17.228991,-4.1228139.797742,5.559385,-25.255839,-14.350169.830904,-11.381394,-28.532421,-20.121299.86419,-21.144698,-26.552644,-21.0623949.897708,-49.971915,-26.679093,-26.8196079.930356,-61.630597,-16.781858,-23.746699.964497,-46.786765,3.569732,-11.6516499.997513,-19.408391,23.778414,0.12704710.030917,-8.595491,35.917599,4.04903910.063935,-3.322073,39.891218,6.12458710.097796,-7.858799,34.008904,4.81341510.130643,-20.43554,21.123449,1.7436410.164299,-24.640507,13.135209,3.42368110.197525,-27.524276,5.769933,3.05915110.230747,-52.194861,-4.092136,-5.82096110.264176,-59.163284,-21.212486,-15.86499610.297932,-37.581629,-15.988002,-17.81210.330874,-9.632217,-13.19327,-6.93250910.364201,1.954187,-12.083518,-3.76741110.397592,10.504037,-15.563764,-4.96844510.431213,7.780535,-20.952556,-11.96380410.464177,-5.684636,-27.169173,-23.12477310.497656,-15.663726,-20.158551,-23.73097710.530337,-24.994861,-13.291137,-20.65880710.56425,-59.225386,-16.400268,-21.98943210.597473,-57.021445,-2.26739,-16.25137410.630478,-37.697303,13.275574,-8.16915810.664138,-12.551751,24.752141,0.0921810.697681,-6.497646,34.121285,3.13681510.730845,0.634336,40.378007,7.1206110.764225,-1.308777,38.258614,5.18318310.79758,-19.024108,27.286194,0.67653610.83052,-24.368157,17.135015,1.52471210.864171,-30.043515,8.817112,-0.4528210.89752,-71.463785,-4.234147,-15.72702510.930949,-63.609476,-23.984323,-28.12883410.964251,-25.348168,-14.156223,-16.72005510.997539,0.545449,-13.259113,-1.53488811.03107,10.076357,-14.007328,2.00581411.064208,11.548096,-14.394754,1.20193211.097591,8.464104,-15.353965,-3.18784411.131596,-2.9128,-24.901185,-12.16267911.164181,-13.294728,-24.518398,-16.32380111.197699,-17.781622,-19.950547,-17.38402111.230645,-39.559011,-15.262383,-21.60215711.264281,-55.570956,-7.118515,-24.37010211.297523,-44.410286,6.314034,-16.74534511.330848,-13.106328,20.611969,-2.74579811.364193,0.44025,31.946674,4.30986711.397523,2.947068,36.476366,9.91713711.430557,-2.469558,34.622889,9.50367411.464335,-15.068446,26.374719,2.4111.497512,-20.114257,19.005402,0.88768211.531315,-25.886434,11.069089,-2.28594611.564178,-50.412464,6.003974,-13.39439111.597767,-50.319087,-10.463633,-23.46910211.630428,-28.416298,-6.3914,-19.16372511.664283,-10.461389,-8.648464,-9.48481911.697518,-7.915214,-11.269311,-5.96057811.73089,-2.1586,-13.841673,-5.24064611.764253,3.433707,-14.429172,-3.47530811.79747,3.089079,-16.251823,-6.04871811.831005,-4.041706,-16.163084,-9.79891911.864292,-8.882805,-12.241691,-10.29498611.898209,-20.620199,-11.703126,-12.62148511.930788,-56.995407,-10.00812,-25.16261111.964194,-50.384032,3.522894,-18.3568511.997845,-18.969488,15.654448,-6.50273412.030943,-0.577322,20.588924,1.2029812.064143,7.329362,26.813322,5.12871312.100117,9.232222,30.880917,7.27489212.130753,-0.868228,27.841669,3.46258812.164167,-10.864377,22.033577,0.46479112.197533,-14.163705,16.186878,-0.66007512.230857,-30.388741,11.570692,-3.12439512.264206,-52.914644,2.473598,-14.24256712.297511,-55.953294,-11.528493,-19.79087812.330922,-25.635932,-7.26307,-11.84094712.364208,-8.336609,-9.073002,-3.76381912.397591,-1.713262,-8.395718,-1.55434112.430947,2.903672,-8.373271,-0.66591112.464254,4.097374,-11.541063,-1.74229312.497676,4.872225,-16.786646,-5.2012912.531749,1.960772,-17.054358,-7.04444212.564258,-6.479091,-13.873547,-10.80511912.597795,-29.976475,-14.172384,-18.95227912.630646,-65.78708,-12.133798,-24.32850112.66417,-46.409515,0.801937,-15.35785612.697512,-12.621335,16.570562,-2.47165312.730822,2.696267,23.719455,5.23825112.764159,8.414573,30.341305,9.27531912.797467,5.260249,30.25107,7.40029312.830869,-5.848944,25.476712,2.95859112.864142,-12.955937,19.776812,0.65034812.896763,-13.717919,14.504741,-0.93571712.930588,-31.217314,15.394518,-2.50352612.963345,-53.547783,3.73015,-15.08984512.997576,-57.738983,-7.464041,-19.06032113.030754,-18.6084,-9.023021,-7.35689613.064164,-9.095897,-11.179675,-2.03843613.097524,-1.485954,-11.159473,-0.77200813.130534,4.257491,-10.503738,-2.09470213.164164,3.73404,-12.311125,-4.41267113.197494,1.221386,-16.423613,-6.41938313.230879,-2.629077,-13.703553,-6.55690513.26424,-8.525608,-12.95025,-9.84590713.297581,-32.435558,-17.347508,-19.82424913.330484,-63.209181,-12.613404,-25.41850113.364737,-38.019335,8.290219,-11.75909213.397534,-14.250348,17.681661,-2.93988513.430696,1.923361,25.214388,4.12939713.463617,7.139764,30.595398,7.35839313.499365,4.279788,28.554717,5.83308213.530078,-4.473277,23.518484,2.00656213.564148,-10.966284,16.016285,1.22722213.597163,-12.956984,11.915619,1.13324613.630629,-22.105705,13.242503,1.25385813.664156,-43.230052,10.042688,-11.70701713.697697,-55.896429,-3.136965,-17.8079613.730565,-25.24671,-7.198275,-9.7481913.764137,-11.434218,-10.903135,-3.11421913.797451,-0.07138,-11.509638,0.84787713.831006,3.043738,-11.130442,1.13294713.863386,5.38116,-13.403968,0.46673613.897561,4.444545,-18.109939,-3.75169813.930797,-2.639103,-14.289854,-8.03298313.964211,-10.465878,-12.246031,-10.90597813.997721,-34.102281,-16.626678,-20.31777114.03106,-57.469925,-1.821454,-20.27467414.064522,-35.660662,10.134269,-11.74457714.097663,-15.524558,17.00318,-3.39719414.130546,1.262089,21.510126,3.22076514.16429,8.44899,30.85473,8.92724914.197505,6.79379,30.005356,8.38524314.230587,-3.100752,26.758553,3.4031814.264156,-13.192522,20.999844,1.25236214.296967,-15.0249,15.726875,0.98345314.330588,-36.43282,21.137515,-4.12460914.364191,-69.728525,-6.389305,-18.20032314.396581,-39.77749,-7.789813,-13.81324114.430672,-13.260759,-9.76525,-5.87617914.464286,-1.590405,-11.490783,-1.54356714.497548,4.428683,-13.613767,-1.42385314.530999,5.145173,-14.937509,-3.97197314.564181,3.180511,-15.810526,-7.73773714.597526,-3.753943,-16.857877,-13.72525114.630877,-10.053163,-11.348921,-14.34312714.664209,-19.234207,-8.392874,-15.75695314.697528,-51.976682,-5.463165,-24.20564414.730948,-49.074955,5.531701,-15.98695514.764183,-27.306995,12.193805,-8.23200814.797625,-1.338257,19.516134,2.10577614.830697,7.921948,25.626953,7.74237614.864187,8.414124,27.797225,8.66013714.897524,2.158899,26.968652,7.41450914.930667,-9.515346,22.557178,3.34556714.964159,-13.35264,18.592089,1.79047814.997522,-17.730893,14.188995,1.16227715.030305,-46.89795,14.816597,-8.2939615.064377,-59.186329,-3.072469,-19.23390715.097533,-35.169085,-5.773075,-14.37350415.130902,-13.796182,-8.450936,-6.67123215.164254,-4.011329,-10.893408,-3.13322415.197622,1.677049,-10.714136,-2.36839915.231005,4.321688,-10.853902,-2.53854315.264273,3.63797,-14.88663,-8.40499515.297591,-2.290734,-15.675847,-9.65870415.330982,-4.897215,-14.589589,-7.29748815.364193,-24.656818,-12.880217,-12.84819415.397766,-53.484185,-7.442043,-19.6852315.430845,-47.946049,3.003783,-17.18828815.463797,-28.784868,12.838766,-8.95104315.497612,-0.124653,17.423078,1.5842715.530938,10.543842,24.271787,8.54775515.564175,13.222451,30.0287,9.00611115.597518,0.955171,28.109979,5.15864115.630569,-10.751247,22.974682,1.03897115.664325,-15.932485,19.867495,0.65064815.697349,-31.035798,21.907129,-2.73861615.731054,-55.962422,7.064045,-13.60493815.764178,-53.415648,-2.984778,-12.96521515.797635,-24.589479,-7.626702,-6.95929515.830857,-6.007266,-11.927291,-2.5187915.864183,2.440676,-15.543862,-1.45213515.897523,4.680532,-14.48858,-2.46671415.930719,1.334815,-19.564319,-9.45055115.964471,-7.507287,-22.919613,-12.05059715.997528,-10.543842,-17.491914,-12.6401916.030517,-23.393682,-10.120203,-15.53248916.064176,-45.158201,-7.249303,-22.62616316.097648,-56.793389,1.987558,-20.02043116.130523,-37.38844,8.438515,-11.39246716.164117,-5.803752,21.014658,-2.63685816.19761,7.325322,29.548796,6.6888916.230863,8.368782,31.620453,10.39943716.264187,-0.996921,27.058138,5.70798116.297792,-7.110285,22.734954,2.91669116.330604,-11.724076,17.239915,3.16180616.364254,-16.855632,10.65383,1.47458216.397502,-36.874566,11.310612,-3.11362116.430824,-58.312864,-2.327846,-18.1723416.464178,-51.30254,-9.109963,-22.18830816.497506,-17.34272,-10.016949,-7.99048416.530193,-5.697805,-10.056605,-2.8372316.564251,1.36205,-9.690129,-0.42274116.597207,6.759073,-10.026826,0.23778316.630919,6.352792,-11.221276,-2.8623716.664181,1.508102,-14.376048,-8.05587816.697541,-6.029264,-14.098461,-11.58251416.730991,-12.290774,-13.908115,-15.62062916.764395,-36.361141,-14.020946,-22.38119816.797527,-60.331248,-9.193165,-28.7547916.831163,-37.562026,9.03589,-14.15951516.864202,-14.94948,16.914142,-1.82579416.897562,0.639424,25.90484,4.18192216.930777,6.681408,33.672955,8.82788616.964225,0.887233,33.401353,9.5599416.997069,-7.644211,28.848167,5.01543317.030905,-13.518594,20.250731,2.21007717.064211,-15.367133,14.93287,1.20432617.09765,-31.983786,11.794707,-3.08174717.130511,-56.142741,3.851211,-14.72396817.164708,-52.485169,-11.911579,-18.87566217.197532,-21.493516,-7.766319,-10.37938417.230977,-7.696586,-9.499484,-5.46346417.26426,1.462461,-10.738228,-1.3158117.297652,5.312624,-10.076208,-1.33032617.330889,6.044228,-11.020455,-3.981417.364373,-0.59947,-14.638522,-7.43545917.397614,-6.527276,-15.248467,-12.06930217.430606,-10.885776,-13.007713,-14.3166417.464314,-29.355008,-10.083241,-18.43720817.501661,-56.898738,-3.658471,-26.27041817.531066,-42.029317,10.001686,-19.66742317.564169,-19.71905,17.73239,-7.61862217.59761,1.917674,23.049802,5.45179217.630884,9.954099,27.896588,13.96303417.664271,7.339538,28.228047,16.34340417.6975,-5.212363,23.784849,8.40379817.730762,-9.512652,16.309884,4.72228217.764277,-12.382206,10.925432,3.20011417.80194,-33.784439,4.539718,-4.49302917.830587,-54.675343,-9.503075,-21.49845417.864206,-44.455328,-12.067207,-24.07635317.897498,-17.014702,-10.555514,-13.80216817.930846,0.843687,-8.045104,-6.57471317.964164,8.521118,-5.038328,-2.72230417.997612,8.702934,-4.653447,-0.64870218.030921,8.158085,-8.404397,-0.32322918.064149,5.625827,-9.879128,-5.34315118.097512,-1.791376,-8.387637,-8.7509718.130541,-18.077317,-13.393792,-13.85454318.164079,-57.090131,-20.144335,-24.80391718.19804,-43.364581,-6.264203,-16.18418418.230355,-20.757422,5.43982,-5.88246418.264154,-0.723075,12.8666,3.57347418.2976,4.222176,17.227495,6.69667218.331813,4.872973,21.887376,7.21653118.364194,2.948714,24.068572,7.50294818.397524,-7.805975,19.869142,7.54215418.430958,-10.481441,15.187113,8.00140818.464363,-11.800543,13.118449,8.06425818.497098,-52.738065,6.263006,-3.24440918.531566,-70.576552,-19.909395,-17.13112518.564178,-31.532911,-15.509145,-14.61188618.597545,-3.246803,-11.116975,-7.70706118.630965,7.93377,-7.353754,-7.03576218.664017,9.097693,-9.117745,-6.36880418.697361,4.745776,-12.79103,-7.27833418.731503,0.665462,-17.836392,-8.39377218.764212,-2.200799,-18.26482,-9.21306718.797543,-6.972463,-16.485415,-8.97378818.832642,-45.63631,-40.630604,-18.46728618.864263,-57.7945,-24.582445,-16.28294818.897497,-30.61126,0.731754,-5.45029518.930658,-10.562697,18.388874,1.48385918.964196,0.254992,35.215325,4.92953818.997631,0.62042,39.219471,7.31245219.030665,-5.233014,33.203525,4.93238119.064156,-20.233372,26.388337,0.35450419.097516,-24.163146,20.570967,-1.19534819.13063,-27.50602,14.751203,-1.81726419.164164,-58.059518,1.629761,-10.97002519.197697,-67.661358,-19.137836,-25.16365919.230877,-34.322406,-14.268605,-18.21693419.264165,-10.962992,-16.360164,-8.75471119.297528,3.119307,-16.067462,-2.41029919.330802,12.904759,-16.474491,-2.37573119.364169,11.099616,-15.024152,-8.3779119.397526,-4.665418,-19.405697,-14.94319519.431003,-8.327181,-16.117892,-13.25103319.464252,-10.194575,-13.094207,-11.55348319.497552,-23.094396,-10.027574,-13.74814619.530039,-52.869152,-15.258044,-23.52895919.564214,-48.199993,5.032642,-15.27480419.597493,-21.540953,16.488707,-2.95514919.630806,0.588246,25.695789,1.63335319.664165,10.67463,35.764964,5.40674919.697484,8.978577,38.025171,7.23598519.730452,-11.121613,29.240681,-0.06419719.764292,-20.36431,23.146771,-0.98465119.797555,-24.083685,13.870554,0.4567119.829863,-47.547849,13.227389,-3.28975119.864134,-62.713264,-13.900932,-25.80532819.897532,-28.233584,-8.652505,-19.42949119.930613,-10.13831,-10.526932,-10.2345319.964139,0.066292,-11.262427,-5.74494219.997501,4.587903,-10.340477,-2.92267620.030342,6.532214,-12.325042,-6.28560220.064215,0.237334,-20.208532,-16.38665120.097287,-5.106266,-18.239231,-15.10181720.131016,-3.576317,-12.895481,-11.86174720.164172,-22.702631,-13.473552,-16.0183820.197557,-54.166856,-26.60068,-30.02331320.231111,-50.604007,-7.285068,-19.090420.26429,-22.701733,11.019258,-4.65928320.298055,-3.177369,24.947425,-1.26597920.330549,2.441874,32.86204,1.32793220.364232,1.527256,34.590865,1.87203320.397097,-4.600323,31.873948,-1.34409320.431091,-15.440907,28.442036,-1.25655220.464164,-20.17576,22.384639,0.61114220.497511,-29.687664,18.538666,1.53024920.530851,-68.649001,7.888578,-12.05433820.564194,-66.92691,-7.991831,-19.22702420.597524,-29.439706,-10.137262,-12.28688320.630921,-6.790198,-14.117765,-3.97556420.663511,3.437149,-17.447021,-2.06941220.697751,7.937511,-18.969039,-5.35886420.730497,1.981422,-23.880171,-11.22307120.763543,-12.278204,-26.495631,-16.60527920.797256,-13.654769,-20.40187,-15.55673120.830845,-22.21659,-11.472825,-13.51964220.864209,-56.069267,-11.836607,-18.58789920.897522,-68.095921,-2.507268,-14.08888320.93111,-40.852375,11.817752,-6.40726220.964175,-10.692886,24.176015,-0.26367120.997498,1.12322,37.004905,5.96970621.030934,6.958098,41.616452,9.60064321.064253,-4.100366,38.080239,4.06774421.097571,-15.042857,32.001743,3.05241721.130928,-23.024812,24.801972,3.24515721.164176,-33.338952,16.866107,1.25251121.197815,-65.847386,9.315124,-9.2160621.230597,-71.049424,-17.693932,-21.99003121.264204,-34.695914,-14.43396,-15.17184921.297639,-7.326369,-14.218474,-6.87160421.330839,1.523365,-13.491958,-2.63461421.364191,6.263754,-13.151819,-0.56744621.39792,7.192289,-18.09273,-4.20930621.430273,1.387789,-22.229759,-9.15126521.464276,-0.331758,-22.459611,-10.73074621.497525,-6.382272,-20.10019,-13.00427121.530157,-34.286641,-25.479705,-18.71988421.564169,-63.023923,-30.774521,-21.3407321.598379,-59.053596,-13.49525,-14.26426521.630521,-29.883248,14.066138,-1.52890221.663323,-12.694361,29.925896,2.46222521.6976,-0.378597,46.711195,9.22234521.730691,-0.091282,47.239285,8.04151321.764193,-17.446871,37.570256,0.84802721.796905,-25.923695,29.099418,-0.11223221.831115,-33.626416,19.290921,0.69120121.864375,-62.395422,14.850716,-1.45542721.897305,-77.634312,-8.750371,-15.58621121.930074,-56.960989,-16.133006,-16.33337821.964191,-15.060515,-15.355761,-5.8212621.99836,-3.83475,-16.809542,-2.91190222.030868,7.347169,-18.46175,-2.48886122.064209,10.646048,-16.901872,-7.5692422.096968,0.508636,-22.200878,-11.67095322.130859,-7.035463,-26.365591,-13.91215522.16416,-9.898282,-19.551749,-12.75002822.197493,-24.980496,-14.019599,-11.92534622.230884,-51.120575,-19.020367,-19.01647622.264296,-70.5984,-6.887915,-19.28658222.297601,-33.797757,16.397874,-8.21225522.330649,-12.63196,24.409159,0.1131322.363311,-0.048035,36.848827,8.36773422.397633,5.082024,40.474077,11.22531622.429977,-5.185278,33.550996,6.49824522.464316,-14.839941,26.108654,3.43849622.497511,-19.366491,17.877992,3.83699522.530103,-23.767789,10.401382,2.86820622.56426,-50.256686,12.429792,-8.44749422.597715,-69.098529,-12.129159,-24.63347422.631062,-27.145679,-11.648207,-13.28275722.664192,-10.28915,-13.410552,-6.78136922.6975,-3.090426,-11.387978,-3.10404422.730925,4.044699,-11.519963,-1.96181922.764278,8.980821,-13.135808,-4.06804422.797591,4.141668,-16.432891,-8.28049222.830649,-2.516695,-19.213855,-10.55237222.864261,-12.312771,-16.501577,-15.90869122.897567,-39.308808,-14.678477,-21.23642922.930905,-61.923748,-7.715291,-22.29171122.964525,-47.390126,5.07963,-14.04773222.997504,-19.234356,15.118726,-3.52498923.030892,-0.54066,22.312512,4.88629123.064165,7.01571,30.219046,9.40775323.098033,5.958782,34.753228,12.70648223.130874,-4.997476,31.282858,7.40433323.164159,-10.492514,28.25588,3.22585323.197503,-16.605579,20.240855,2.49140523.231078,-37.638942,16.738611,1.77341923.26418,-64.296486,-0.763778,-10.20385323.297737,-67.213177,-16.470152,-14.29808423.330923,-22.389428,-13.772089,-8.63963623.363376,-4.508293,-13.719565,-5.91927623.39753,5.768287,-13.137304,-2.27098123.430959,12.25875,-17.260566,-2.78126423.464146,5.151309,-18.660775,-9.6350623.497666,-8.83043,-19.064362,-14.86208923.530904,-21.178068,-12.508205,-17.20624523.56427,-54.261281,-22.249811,-21.13167923.597524,-63.822418,-9.57251,-15.51572923.631437,-42.642404,5.663836,-8.63888723.664189,-12.001215,21.236878,0.0839523.696798,2.218606,30.505313,4.12026923.73077,6.84392,34.026861,6.73647723.764208,1.654003,32.073721,9.19735523.797172,-8.467845,26.152799,5.96880823.830947,-16.142583,19.935134,4.69519723.86421,-19.347935,13.265997,3.62884123.897617,-28.598114,8.881309,-0.04234923.930825,-53.022536,0.909829,-3.60714323.96417,-56.258715,-9.874639,-13.47250423.99748,-26.319201,-10.328207,-11.12415724.029867,-10.138609,-11.696242,-7.03845624.063681,-1.047501,-13.330343,-4.45576824.097328,9.189424,-17.400931,-5.78310124.130502,3.611483,-18.266166,-9.28699124.164142,-6.506475,-19.552796,-11.12475624.19748,-8.408886,-10.43999,-11.86249624.230615,-23.512648,-12.64004,-15.23784224.264171,-55.140583,-16.845606,-21.77289924.297503,-58.525656,-3.507331,-17.93036824.330739,-31.909263,13.714776,-4.75355824.364189,-7.199023,24.066626,2.63491324.397866,5.70828,32.169642,4.66018124.430617,6.167384,33.593195,10.4022824.464229,-4.046046,28.83006,6.64369824.497538,-10.772496,25.084049,3.17721924.530854,-16.907708,18.938362,3.71264224.564236,-25.654039,12.217299,2.17176824.597576,-52.574056,4.457414,-4.49587324.630861,-64.763971,-11.381394,-16.86745424.664358,-27.746646,-9.397577,-15.63529424.697578,-8.93548,-11.656737,-7.30586824.730554,1.867394,-9.352086,-2.49095624.764344,11.155433,-7.750307,-1.21195824.797764,8.577683,-9.368995,-3.29543724.830024,3.681665,-14.559211,-6.49869424.865204,-4.257641,-19.170758,-12.98362124.896891,-17.962092,-22.107501,-14.31484424.931155,-29.992337,-21.225356,-17.40018324.964179,-48.739606,-16.510406,-19.16177924.998123,-51.346685,0.700628,-11.04394925.030432,-27.860225,12.667425,-4.94210825.063509,-5.951599,24.175117,0.21309225.09759,8.675699,42.274282,9.74040925.131061,3.326862,41.177399,7.57178325.16416,-6.888214,39.348912,-0.4486325.19792,-19.759902,30.881067,-1.3912325.230193,-29.923651,22.516176,-0.0167625.264586,-49.113863,18.470728,-2.64493925.297501,-67.036748,3.756786,-14.54813825.330508,-41.904814,-7.239426,-11.54151225.364192,-16.990909,-10.202806,-6.83419325.396901,-9.745946,-12.674309,-5.72279525.431007,5.85927,-18.055768,-6.34396325.464738,6.846913,-19.322496,-8.39766325.497482,1.022361,-21.280873,-11.58146625.530102,-9.261103,-27.284997,-11.02419625.564172,-15.478917,-27.933699,-13.20494325.597627,-36.674643,-22.353813,-20.85603725.630515,-60.726455,-15.387784,-24.00751725.664295,-63.789346,8.429387,-18.22426625.697644,-38.92213,27.046167,-8.75126925.73103,-13.151969,31.063631,-2.65107425.764485,5.489352,43.839697,8.36384425.797723,8.877867,45.499387,10.42801825.830844,-5.094444,40.264278,3.91465925.86419,-20.128323,31.288694,0.70541725.897604,-29.253251,18.149445,2.5021825.93065,-37.366891,14.561306,2.80670325.96416,-58.83841,10.672385,-1.66208425.997503,-53.561999,-7.203063,-14.39460426.030714,-28.797139,-5.749132,-9.93838726.064202,-12.880666,-10.308753,-6.84781126.097611,-7.545596,-14.63104,-5.89518426.130997,-0.660674,-15.309671,-5.58856526.164259,1.138334,-20.086124,-7.05805926.197529,-3.404078,-28.755987,-9.94721626.231131,-7.341633,-24.034902,-13.01818826.264202,-16.824357,-15.876967,-14.35734326.297654,-44.318255,-9.71048,-15.24248126.331063,-76.868589,3.410512,-18.85037226.364477,-52.37129,21.414055,-13.26958826.397522,-24.504481,25.713896,-5.30110126.430387,-6.729294,27.270482,1.72358726.464155,10.352898,37.709424,10.42786926.497622,9.73592,37.990154,11.78483126.530902,-4.329919,31.708891,6.72959326.564334,-13.597007,22.010382,3.85944126.597525,-17.335686,15.254003,4.22397126.630719,-34.851244,12.471842,1.15344826.663962,-69.780601,-14.308559,-19.46450726.69804,-50.884737,-17.47261,-17.08114426.730776,-15.343041,-13.799175,-9.09664526.763596,0.023943,-11.767472,-4.79081926.797589,9.43424,-10.657271,2.39204326.830508,11.721532,-11.943901,3.51930326.864254,4.162169,-14.452665,-1.48999526.897612,-9.397876,-22.383143,-13.14762926.930943,-19.237499,-19.732966,-18.47461926.96416,-37.964116,-21.88558,-19.57000526.997506,-53.786164,-11.180722,-15.85691527.030286,-39.241169,5.531402,-8.48295927.064179,-18.342185,15.258493,-2.22848327.097517,-1.992945,28.464034,1.76922927.130849,10.332696,42.322766,10.54743327.164195,1.21959,37.49304,9.96322727.197221,-11.452324,30.547213,3.42383127.230672,-22.256096,22.128151,1.72224127.264427,-22.930387,17.232882,1.93817527.297655,-37.34639,23.797269,0.20067127.330834,-64.93606,0.915665,-18.62635727.36376,-48.057383,-7.265015,-13.11500727.396529,-21.416599,-11.987597,-5.87558127.430931,-7.814205,-14.508183,-2.20798227.464192,0.925691,-12.981376,-0.46045127.49754,1.773718,-10.887273,-0.57178627.530869,-0.316944,-15.144016,-3.04942427.564289,-7.741628,-19.625972,-9.72918627.597502,-9.345801,-17.180956,-9.42750627.631019,-10.943389,-13.102437,-10.4232327.664855,-35.313341,-7.075418,-14.77185427.697603,-67.06099,-0.027085,-18.63443827.730884,-50.031922,13.156159,-12.1665727.764152,-23.387098,18.230551,-4.62037627.797492,1.75591,24.870059,4.81925127.830897,7.838148,34.063823,9.66917927.864231,9.523427,37.939276,11.82104527.897498,-5.56163,33.833971,5.04760627.930481,-10.736582,27.48896,2.37528227.964178,-16.242245,21.393854,1.85033527.997529,-44.556187,25.067738,-1.97034928.030199,-75.239725,6.119948,-16.47374328.064431,-51.263484,-7.408224,-13.64115228.097128,-20.451402,-10.697974,-4.80129428.130534,-6.506176,-11.648207,-3.18904128.163903,-1.220787,-13.522335,-3.32237328.198209,1.863204,-13.27707,-4.23130428.23064,-1.694706,-20.776876,-10.98708428.264207,-9.511605,-24.182151,-12.74808328.297498,-6.648935,-20.731983,-10.41963828.330924,-21.704812,-13.895994,-14.270428.364195,-52.303502,-15.451233,-22.93996428.39831,-70.826007,-2.311984,-20.92726728.430548,-48.564673,13.917093,-14.2201228.463634,-11.785579,28.708251,-1.4205628.497821,5.671468,38.401822,9.16802528.530132,8.730768,40.33057,13.33483328.564189,-2.150369,35.086034,6.30655228.597557,-10.186794,30.688027,1.09523728.630927,-15.457219,24.988726,0.53542228.664172,-23.044415,18.377201,1.41562228.697553,-55.066659,17.400033,-6.28201128.730903,-65.991941,-4.71061,-17.05001828.764183,-43.439552,-11.076721,-10.97601128.797524,-11.384237,-12.818564,-3.45405828.830833,-2.123284,-12.219244,-2.16204128.864253,4.424194,-11.431075,-3.97900628.897388,1.769827,-12.62343,-8.58606328.93102,-7.747913,-20.15062,-13.76520628.964281,-9.626381,-23.656605,-12.62163428.997557,-10.525286,-20.348598,-11.78183829.031792,-39.737086,-10.31399,-18.31629729.064162,-68.981358,-5.023813,-25.02119929.097488,-58.53643,7.023043,-16.79023829.130491,-21.587492,21.644206,-2.90501929.164178,-2.763157,29.99952,5.08501729.197507,5.560133,35.147686,13.00292529.230857,5.208622,36.040307,12.50521229.264167,-5.284641,31.983786,5.27596129.297494,-12.161482,26.769477,3.75169829.33079,-16.161289,19.113295,3.46228929.36533,-26.165668,11.646262,-0.05641529.397514,-56.412997,10.598013,-8.01367929.430993,-58.440659,-9.32096,-22.45661829.464227,-26.949348,-9.333829,-11.1355329.497587,-10.786264,-11.551538,-4.6269629.530777,-5.488155,-10.30591,-1.16811329.564276,2.201846,-13.399927,0.14021529.597698,2.550664,-13.477592,-1.99863129.630816,-0.562807,-17.174521,-8.68617429.664179,-8.84749,-20.8716,-10.97945329.697521,-12.142927,-17.929769,-11.17683229.730209,-33.180929,-9.833188,-15.85107929.765037,-65.217988,-6.938345,-21.91057129.797515,-54.698238,10.585143,-14.99871329.831445,-26.438168,20.7459,-6.37434129.864191,-3.066334,27.685591,3.52753329.8979,9.753278,34.313726,13.18997829.93056,8.938622,33.795962,14.1111829.964468,-0.564004,29.682576,7.54200529.997697,-7.706462,26.505657,2.69192730.030467,-12.304242,20.379873,2.05429830.064194,-25.858152,20.725398,1.55793330.097598,-58.076727,19.411533,-9.70090330.130622,-58.625168,-4.835413,-13.21736330.163776,-26.850584,-7.470475,-6.22769130.197622,-10.79195,-11.15259,-4.82927730.230914,-3.554319,-13.113211,-5.80599730.263758,1.840758,-13.321963,-6.74081630.297659,2.085125,-19.102521,-9.56457930.330671,-4.100666,-23.580885,-14.25004930.364306,-9.478983,-20.128772,-14.18405630.397497,-20.635463,-14.71903,-14.80238130.430977,-46.711794,-12.272517,-20.36221530.464183,-61.615483,2.488263,-17.12977830.497641,-43.250253,14.009872,-9.52911330.530597,-17.476351,21.177619,-3.55476830.564212,1.794668,33.407189,3.21328330.597837,11.991488,42.042784,8.67450230.631015,4.329769,38.423371,3.4410430.664195,-7.156973,33.994388,-1.89582630.697528,-20.726296,22.345583,-0.15158830.730915,-37.797713,15.68273,-0.18615630.764365,-61.650649,8.642179,-10.46049130.7977,-63.320365,-13.160948,-19.37412330.829933,-24.63916,-11.467588,-7.88633330.864189,-10.835795,-11.913225,-3.03161630.897594,-1.069498,-10.655027,-0.70751230.930956,7.133928,-12.33417,0.73070730.964157,6.300866,-14.694339,-2.74654730.997481,3.033861,-21.470321,-8.28049231.030931,-5.15086,-20.160945,-15.52560531.064763,-13.743807,-16.762105,-17.8666231.097509,-36.475319,-12.397469,-22.62810931.130737,-57.698878,-0.387126,-22.36398931.165305,-41.121582,10.619561,-14.82348131.197526,-20.311935,19.187817,-8.69440531.230913,-3.387318,23.954843,-3.07037431.264278,11.999269,37.354621,5.83966631.297623,11.164112,42.097255,4.52774731.331286,-2.93809,40.793416,-2.5102631.364177,-13.676168,30.206027,-1.84779131.398015,-22.705025,24.764561,-0.50369831.430116,-41.644285,26.419462,-2.42885531.464449,-71.531573,9.060581,-20.01444531.4975,-49.885422,-7.77844,-15.12441331.5301,-20.556751,-9.030054,-4.78378631.564188,-7.07018,-13.576506,-2.88511631.598503,-1.003655,-22.255049,-2.64299431.630759,1.496579,-17.492512,-5.81347931.664186,-5.89264,-16.302851,-11.90559331.697825,-15.587408,-21.016155,-11.46803731.730876,-14.805524,-16.786347,-9.84276531.764395,-25.277088,-9.306445,-13.29876931.798259,-62.969303,-1.308927,-22.18621331.830561,-65.419257,8.784191,-23.39577731.863926,-41.34485,25.238779,-13.32106531.89751,-11.794408,29.131591,-2.42945331.930497,4.274102,33.5284,3.68929731.96412,13.532212,39.097662,12.77127731.997579,8.116035,37.077332,10.45360732.03084,-8.039567,32.769561,2.53869332.064199,-17.494009,25.865783,1.08940132.096858,-29.365184,21.47915,0.31948832.131078,-64.549383,18.800541,-11.65434232.164148,-59.054943,-4.495124,-19.57958232.19748,-33.865695,-8.29411,-10.02622732.230453,-14.442041,-11.640874,-5.9260132.264213,-4.222176,-12.671765,-4.36328932.297458,1.572598,-16.049206,-5.45134332.330833,0.277588,-13.815635,-6.32825132.364133,-7.703619,-22.313858,-12.22971932.396735,-10.694084,-21.957708,-12.96042632.430829,-12.471094,-16.78096,-13.43000632.464134,-30.701046,-8.966605,-16.62009432.497472,-60.257474,-0.549489,-21.37799132.530889,-52.731481,11.688012,-16.08033232.56414,-30.705984,21.962646,-10.09925332.597469,0.077814,29.7773,0.56071232.630534,7.535121,35.814196,9.49245132.66415,12.094442,39.63054,14.7440232.697548,-5.579886,34.40426,5.11748932.730869,-14.153529,27.879229,2.10846932.76422,-22.422499,21.471668,0.2765432.797508,-34.128618,21.162805,-1.09882832.830488,-66.658451,12.947557,-14.94020232.864165,-53.988781,-8.328079,-13.4364432.896798,-22.749469,-10.648742,-5.76828732.930541,-7.180916,-13.31089,-3.53097532.964173,-0.26816,-18.196433,-5.77861232.997507,1.306383,-20.078492,-8.10047233.030796,-1.005451,-25.760884,-12.35332533.064194,-10.792998,-24.872304,-15.72388233.097515,-18.215886,-18.557072,-16.84291233.130292,-39.099457,-6.915749,-16.80340633.164222,-74.429409,5.359911,-18.10006333.197473,-61.517916,20.819524,-13.13311433.229834,-28.944537,28.512967,-4.86234833.26413,-2.604087,31.464225,2.09470233.297529,10.187692,38.248737,11.77016633.330545,15.131296,44.210063,16.38021633.364259,-3.293342,40.555483,4.31645133.397482,-14.308709,31.774585,1.19998733.4307,-22.654895,23.315568,1.54446533.464172,-42.116708,21.763322,-0.21593533.497539,-71.258924,4.139274,-17.43100933.530893,-51.67994,-8.609707,-15.66252933.563935,-19.063763,-10.381629,-6.26495233.59752,-4.493329,-15.501214,-2.06911333.631808,-1.436423,-20.004119,-1.89971733.66366,-1.988306,-20.045122,-8.42729233.697602,-6.414445,-21.137814,-15.19115333.731003,-12.27566,-23.380962,-17.65502533.764199,-15.053632,-16.136149,-14.42079133.797803,-36.602814,-9.658105,-16.6637933.830848,-70.154858,-5.861365,-17.56853133.864177,-64.380436,8.815616,-12.13424733.898453,-29.524853,22.89148,-5.40450533.930964,-4.852771,37.01538,6.26405433.964315,6.603594,44.041865,13.86067833.997899,4.051134,43.816652,11.67663934.03087,-8.91034,38.66669,5.33701634.064158,-16.075094,27.390346,2.31542534.097506,-23.75073,17.968526,-0.79445434.131002,-50.857951,17.266851,-5.38864334.164173,-66.71756,-8.996534,-25.50110334.197612,-43.418003,-8.689167,-17.68300834.2306,-17.070818,-12.712468,-8.28842434.264156,-2.198554,-14.493817,-3.86497834.297609,2.521933,-18.614236,-4.48045934.329959,0.448929,-17.469467,-8.7298734.364875,-7.66531,-23.054591,-14.05476534.397693,-11.546899,-32.061151,-12.39687134.430619,-18.136426,-23.188821,-13.60808134.464361,-45.791191,-14.887378,-16.40146634.497522,-77.885712,-10.430113,-19.31531334.530145,-62.904957,12.360956,-13.32645334.564188,-28.439792,31.27358,-5.95429334.597709,-2.692675,57.525891,1.6429334.630554,11.623666,58.238042,13.44033134.664777,-5.073494,45.830397,5.05119834.697515,-22.542363,37.661838,-0.31365234.730552,-34.477735,24.196217,-0.76168334.76419,-41.190718,16.750283,-5.96491834.796865,-60.618263,15.08371,-10.56449334.830309,-52.546223,-8.039418,-18.39800234.86438,-28.533019,-8.915876,-10.71383634.897532,-14.579712,-11.503502,-8.56720834.931069,-4.64372,-15.02475,-6.96872234.96418,4.614988,-20.314928,-5.55235234.997569,3.571827,-30.886903,-7.80073735.030329,-10.576015,-39.036907,-10.86183335.064243,-20.052454,-32.60645,-18.69055435.097514,-31.171224,-17.693034,-20.85738435.130467,-61.272502,-15.345735,-22.79840235.164225,-77.618899,-6.178757,-16.48047735.198021,-53.179213,15.450335,-7.56534935.230445,-21.258127,35.453257,-3.89475735.264,-3.730599,49.624145,5.55100535.297559,6.891058,52.111361,9.17655435.331069,-4.843942,44.559629,3.14893735.364263,-20.30131,35.288351,-0.46164835.39771,-31.798677,19.818413,2.41089835.430959,-57.501948,15.702633,-0.26786135.464158,-77.01494,-7.843984,-15.32194135.497506,-42.002381,-17.527978,-13.63950635.530851,-11.326325,-17.993068,-1.90555335.564159,0.299735,-18.874016,0.691535.597505,7.119562,-19.016326,-4.58461135.630929,3.550728,-16.973551,-13.47908835.664176,-10.908073,-24.851354,-18.32258235.697653,-15.383145,-27.321959,-14.64226335.730899,-25.947039,-22.550145,-14.14006135.764198,-45.358573,-17.228692,-14.68925135.797526,-62.337959,-12.426201,-17.85479835.830892,-54.707067,3.640364,-11.27335135.86417,-23.482869,23.853535,-3.44463135.897747,-6.48358,36.03462,1.25819835.93085,3.765166,45.203842,11.3912735.964397,-1.206721,40.04954,7.35824335.997524,-15.920064,33.664126,2.75073736.030549,-22.088945,22.484002,3.91196636.064195,-34.824009,8.441209,2.11535336.096817,-57.469027,3.37385,-3.71189336.130605,-59.670724,-12.254261,-19.67445636.164648,-38.854492,-13.074005,-14.80148336.197693,-7.994824,-14.552028,-6.87878736.230831,-1.690067,-15.399007,-3.44552936.264254,0.538864,-15.076078,-3.67702636.297735,-2.310337,-16.910102,-7.66785436.331194,-6.03944,-23.57894,-9.54407836.364509,-7.213838,-22.289616,-8.75725536.397522,-9.497539,-16.676659,-6.20973336.430905,-31.450907,-14.516713,-10.88203536.464182,-57.892816,-15.754409,-19.7648436.497848,-56.258715,-1.729573,-13.65776236.530429,-24.465724,14.08619,-4.40294436.564271,-7.314547,22.308621,-0.13976736.597579,1.006349,33.784589,5.92526236.63083,6.840179,44.129855,9.27367336.664177,-4.683675,44.438119,3.72191936.697607,-12.318458,35.487226,1.48430836.730707,-28.662909,18.53268,2.10353136.764214,-62.028797,12.282543,-3.12454536.797591,-68.109389,-5.748534,-18.83151736.830929,-44.08137,-11.431225,-16.24419136.864184,-12.528108,-14.072872,-5.01692936.897591,-5.989459,-13.938792,-0.76347836.930833,-0.313352,-14.32936,-0.36961836.964081,-0.64541,-15.709666,-8.72538136.997715,-4.242378,-25.24252,-13.92711937.031059,-1.208516,-29.887438,-14.63208737.064275,-1.842404,-25.158271,-13.19057737.097523,-37.798312,-20.465768,-17.25742337.131215,-70.085124,-17.307853,-20.23741337.164192,-67.720167,0.526743,-15.27959237.197579,-28.091273,25.688456,-6.9531637.230637,-5.096091,34.674066,-3.3485637.264357,7.020648,43.060656,5.47588437.297484,7.540957,46.556764,2.50951237.330844,-3.864379,43.138769,-0.37156337.364141,-16.764649,32.694889,-0.93751337.397481,-31.410204,19.993345,-1.62691837.430854,-47.51403,10.434303,-6.36850537.464148,-65.827184,2.755376,-16.10681937.497489,-50.886683,-12.671166,-18.05576837.530108,-14.371559,-11.666314,-4.05083537.564172,-5.869296,-14.864632,-1.93967237.59817,-3.153725,-20.687539,-3.06498737.630843,2.917738,-23.478529,-3.98424337.664473,-5.608019,-21.737134,-7.81749737.69686,-13.002925,-21.915359,-11.39830337.730579,-14.675035,-15.968548,-9.02257237.764197,-32.852463,-11.246565,-8.61015637.79691,-62.860812,-11.701929,-9.62488537.830712,-64.205503,-3.236627,-12.14397437.864738,-30.970553,21.47481,-9.97265537.89762,-7.288659,31.649633,0.53153237.931532,4.600024,40.633896,7.80747137.964327,8.068149,41.797819,13.34291337.997932,-7.579266,34.327344,7.54514738.030826,-14.506387,25.727813,2.1834438.064416,-22.687517,16.914591,-1.52710638.09749,-38.251431,10.830408,-6.69846738.130732,-58.879412,0.951579,-15.18950738.164173,-55.457526,-20.711482,-19.27640638.197552,-16.130013,-13.054551,-7.94903338.230497,-3.413655,-10.759478,-6.53101738.264265,2.690879,-13.261657,-4.00489438.297949,6.727348,-15.578579,-2.16398738.33065,0.050579,-18.316147,-6.33109438.364267,-8.354117,-25.813259,-9.12762138.397592,-9.355228,-19.797014,-11.11188738.430626,-19.791028,-14.137817,-13.21332338.464292,-42.671434,-18.550189,-13.92951438.497572,-62.825347,-14.518658,-12.29451538.530628,-35.35584,8.913482,-8.8096338.563862,-10.924534,23.029601,-3.1263438.597256,1.641583,34.174109,4.8449938.630892,4.715848,40.602172,8.0090438.664175,-7.264866,37.373027,1.83671838.697554,-15.264179,29.784034,-0.96250338.730639,-18.871173,19.819909,2.47135338.764675,-39.712694,11.13164,-0.11238238.797597,-64.141456,-5.063768,-14.2244638.830992,-51.240139,-14.011069,-19.8489438.86419,-14.977164,-13.639955,-6.93235938.897597,-4.639829,-14.265462,-3.05077138.930588,2.826157,-14.859096,-3.58963538.964287,5.373229,-14.551131,-8.65968838.997604,1.022361,-21.34941,-14.64525639.030754,-8.471287,-24.456147,-16.97774139.063525,-9.380518,-20.63277,-11.39590939.09668,-21.250645,-15.61988,-9.76614839.13042,-47.420802,-17.48069,-16.48481739.164142,-62.893584,-12.721147,-18.55123639.197484,-44.237598,10.414251,-11.41820639.230819,-14.249001,25.974574,-4.63384339.264238,2.166231,42.724707,3.08548839.297478,6.738572,48.546566,11.15438539.330811,-8.219887,38.126479,5.01618139.364207,-21.186149,27.425512,1.13608939.39748,-25.804879,16.882717,0.4610539.430499,-45.891601,1.040467,-6.11411239.464221,-58.004,-14.974021,-17.12783239.496779,-40.984061,-22.529943,-19.09174639.530804,-10.98484,-12.396122,-8.00140839.563375,-3.559257,-11.907837,-3.20370639.597471,2.101735,-11.178927,-1.92051839.630804,7.56894,-11.457712,-2.55141239.66414,6.887915,-17.185744,-4.23803839.697584,-0.988392,-22.305329,-8.48849639.730854,-8.293511,-20.983682,-11.46324839.764498,-20.725099,-19.033984,-16.08766439.797555,-54.22387,-22.751564,-25.27454439.831727,-60.704008,-7.77455,-22.93053739.864248,-37.223384,15.671058,-9.53435139.897832,-8.217642,26.723237,-1.17888739.930876,5.378467,42.867766,4.87686439.964254,8.531593,48.260898,11.38064539.997751,-12.806892,34.578894,4.75445640.030581,-24.781171,26.028894,2.1416940.064167,-29.22826,18.302978,1.98381740.097515,-41.199846,15.000957,-2.50382640.130952,-61.265917,-4.840351,-15.52395940.164165,-55.255209,-21.891716,-19.19455140.197525,-15.03747,-17.480391,-6.19297340.23057,-2.240604,-15.72059,0.31664440.263637,8.869786,-16.448154,2.16982340.297558,15.717148,-19.613701,1.47622840.331109,0.470178,-24.510018,-7.62625340.364165,-15.726576,-28.360331,-17.94353640.397909,-21.804174,-20.065922,-20.72689540.430898,-49.86941,-19.291071,-17.90881940.464403,-67.253132,-11.799795,-17.22973940.497523,-59.537541,6.532064,-12.80704240.530217,-31.756328,23.269628,-6.7767340.56419,-1.29935,46.198818,5.54711440.597799,8.32748,56.209482,14.59362940.630538,-6.759671,44.967706,12.20083840.664228,-22.64023,29.728068,5.72967940.697511,-28.67937,19.914783,3.688140.730571,-33.726976,10.779979,1.98501440.764266,-59.24454,2.882123,-5.78025840.797698,-56.709888,-17.54788,-11.5841640.830592,-32.8577,-17.280319,-6.42806240.86424,-10.085037,-15.361597,-2.51370240.89752,-2.554704,-14.529582,-2.04217740.930799,4.959766,-17.941591,-5.02037140.964178,5.466158,-22.151945,-7.29524340.997803,-3.622407,-22.375811,-12.40390441.030582,-11.850225,-18.33156,-15.41786241.063513,-17.681511,-12.042067,-14.54469641.09718,-40.948895,-15.33526,-16.90621141.130929,-55.538334,-9.03574,-18.36807341.164326,-42.192876,3.902389,-12.79043241.197565,-11.878208,21.786068,-2.20528841.230855,2.479733,37.083916,5.70438941.264208,3.696779,39.616623,12.14591941.297589,-5.989609,34.73976,10.42382841.330493,-20.390498,25.547942,4.00294941.364169,-25.541357,18.272302,4.14241641.39755,-29.677339,9.858926,1.34184841.430875,-56.229834,-3.826669,-11.04364941.464257,-55.991004,-26.09773,-22.56301441.497512,-22.159876,-16.747739,-11.30462741.530966,-6.094957,-13.166335,-5.86001841.563998,2.001474,-8.056178,-1.98097341.59727,4.760292,-7.92928,-1.55015141.631002,7.106693,-8.684079,-3.51346741.664236,4.500212,-14.69823,-5.2220941.698196,-1.394672,-25.593284,-9.02152441.730845,-6.325707,-25.743974,-13.64145141.764205,-29.889682,-27.529065,-21.33564241.797527,-46.479698,-19.53454,-21.18001441.830998,-51.852478,-2.448757,-13.99071841.864187,-31.154614,11.132837,-9.3713941.897608,-4.641625,30.062669,-1.91468241.930801,4.456367,39.562752,10.28002241.964164,0.93886,37.893485,9.33263241.997538,-12.164475,34.506616,0.49666542.030814,-20.109767,28.698225,1.18113242.064167,-27.88327,18.883443,0.66531342.097688,-49.793541,12.972547,-3.15372542.130847,-64.621361,-3.854204,-15.56047242.164207,-47.091737,-16.269181,-13.52757342.197582,-18.404586,-14.196028,-3.86288342.230948,-6.222154,-12.222686,-3.66610342.263501,-0.421245,-8.643377,-4.89482142.297518,4.791717,-9.307342,-6.31747642.330875,1.430138,-23.878675,-13.20060342.364227,-6.394093,-27.854837,-14.53272442.397032,-7.251996,-24.642901,-15.47667242.429911,-24.55521,-20.41025,-19.25934742.464224,-62.767135,-10.81305,-19.60846442.497658,-61.222222,3.735986,-14.27159742.530914,-39.071175,19.420662,-9.79248542.564981,-3.72596,34.560188,-1.87158442.597523,8.429686,43.170194,9.24090142.631303,10.832354,45.672075,10.12858342.66429,-8.367585,39.449921,2.28040942.697579,-17.239915,30.50651,0.26082842.730853,-23.493943,22.82429,0.17822542.764975,-38.586481,16.090657,0.2264142.797525,-61.775003,4.151844,-12.405742.831133,-51.572496,-7.110135,-14.48244442.863639,-23.502173,-7.850269,-8.7467842.897672,-11.694896,-11.388876,-5.78325142.931008,-3.583051,-18.802187,-5.03174442.964248,5.034288,-22.258341,-6.23547242.997622,-3.363375,-30.50262,-9.30883943.030268,-10.497303,-26.491291,-9.12238443.064157,-15.563914,-17.246499,-12.07468943.097587,-38.094904,-13.740515,-16.27621443.130558,-74.941786,-2.95889,-19.73790543.164266,-64.0813,15.244426,-16.46356743.197569,-31.786407,30.059527,-12.14292743.230639,-0.036064,46.563797,1.4753343.264306,18.362985,54.534978,14.69478843.297069,9.439327,49.736078,10.55267143.330832,-18.676936,39.009522,2.96592343.364188,-30.155897,30.240595,4.57623143.397647,-37.500074,27.336774,4.02853843.430891,-57.343476,32.524446,0.73235343.464298,-70.099341,-4.683824,-10.12454243.497504,-35.242859,-15.043605,-7.01855343.5302,-13.947321,-14.280426,-4.48883943.56539,-4.286821,-26.369631,-8.13264543.597492,-2.108319,-30.327837,-12.37322743.630837,-6.334985,-25.865783,-18.84827743.664009,-17.239765,-27.318667,-15.92111243.697485,-21.417347,-21.693289,-11.60585843.730853,-34.543727,-11.16097,-13.83493943.764135,-67.928021,-10.224354,-21.39909143.797476,-75.081254,4.406536,-21.51117443.830854,-40.518671,23.606624,-13.91320343.864284,-17.243357,36.515423,-3.51152143.897492,2.087519,48.93459,8.63903743.931316,6.499592,57.470972,12.60771843.964181,-11.782736,49.637014,4.69100743.996871,-27.628278,36.220327,0.33086144.030557,-43.904492,18.742629,0.06973444.064263,-54.541861,7.907582,-5.61146144.097506,-65.826137,1.807836,-12.06795544.129992,-42.393248,-16.046512,-11.89197544.164252,-19.789831,-12.766189,-6.37643644.197201,-8.236049,-12.161632,-6.08029244.230777,-4.085851,-19.548157,-9.58882144.264282,1.851083,-24.536655,-14.29449344.297529,-4.446491,-37.929399,-17.89265844.331043,-13.748745,-39.628894,-16.07225144.364472,-23.052496,-18.384983,-17.44776944.397531,-47.300938,-9.293276,-16.24763344.430518,-77.691475,-4.884645,-15.47293144.464219,-50.716389,18.448431,-15.99249144.497528,-19.508801,32.112778,-8.14057644.530064,-6.148978,37.3425,1.45871944.56376,2.535849,42.618162,6.60823344.597616,2.765551,42.870759,6.86681644.630627,-11.758195,34.316121,1.72897544.664238,-18.29819,23.722896,0.04983144.697659,-31.735378,13.971563,-0.37141444.730659,-60.955109,4.875666,-10.8462744.764278,-69.800653,-17.761271,-24.03624944.797524,-25.336646,-14.464188,-11.68711444.830628,-7.92928,-13.065625,-3.76845844.86419,4.214544,-12.918376,0.72711544.897595,7.69045,-9.795328,0.21967644.931121,3.401983,-13.684099,-4.5388244.964883,-4.111141,-21.685059,-8.89013844.997682,-6.556905,-24.286302,-9.04157645.031591,-22.218237,-24.886819,-15.97303845.064204,-51.917723,-16.880473,-24.53904945.097567,-65.477917,-2.364059,-24.6141745.130867,-41.654461,18.759988,-14.17492845.164654,-19.737605,24.514358,-7.19154145.197526,-3.645601,37.701343,2.19137145.231136,12.221639,51.029891,17.9207945.264208,-2.328893,48.306389,7.79714645.297544,-20.995055,39.569635,3.13322445.330844,-27.470105,25.598072,5.08905745.364555,-36.2109,16.778266,1.31895345.397529,-65.978922,18.396954,-11.61438845.431408,-71.784021,-13.047967,-23.93823345.464193,-25.220972,-12.057032,-10.2933445.497643,-7.647054,-12.982423,-3.0470345.530498,1.297255,-14.751652,-0.04234945.564193,8.802896,-15.07503,-0.53078445.597588,7.983451,-15.613446,-5.73207345.630577,-5.66204,-21.81854,-14.89575845.664199,-15.821001,-24.047771,-16.2527245.697547,-17.609533,-15.46081,-12.61834245.730619,-35.59871,-8.443903,-16.3071945.764413,-60.34711,0.827974,-22.76338645.797491,-46.908126,17.494158,-16.60842245.830092,-21.767961,20.455443,-9.0149445.864221,-2.390845,25.770311,1.30922645.897657,6.561095,32.184457,6.38466645.930855,11.092732,36.650251,9.04307345.964184,-5.426502,32.416403,3.68061845.997605,-14.443986,25.26766,0.21967646.030591,-22.199382,13.767151,2.76989146.064189,-49.409258,11.788123,-2.08407746.097584,-57.661917,-9.541983,-14.83171146.13061,-39.917406,-13.55825,-10.07979946.164328,-11.746822,-12.351379,-3.25832646.19755,-3.19338,-9.669927,-4.48779246.23109,2.169823,-10.267302,-6.6050946.263748,4.486445,-14.140361,-9.92357246.297666,-4.624416,-26.608162,-15.90779346.330989,-9.743851,-27.389897,-14.03740646.36427,-13.13057,-18.214091,-10.64814346.397657,-34.582635,-12.803301,-13.77328646.430844,-54.820496,-6.476397,-16.8520446.464487,-39.850964,3.831009,-19.63270646.497529,-11.213794,21.307809,-7.65588346.530157,5.812731,29.053178,2.21097546.564204,14.261272,38.305901,9.56008946.597553,-3.08893,36.3366,5.85867146.630936,-19.760201,29.813664,-1.60222746.664282,-22.400352,23.027805,-0.70736246.697547,-37.985815,19.381754,-0.6916546.731132,-56.419581,4.379899,-12.78369846.763343,-55.279451,-13.319868,-16.96921146.797529,-18.128794,-15.265526,-5.783746.831042,-5.961027,-13.571119,-3.10389446.863315,0.715144,-13.328099,-1.89043946.897592,4.523856,-13.724054,-0.78876846.930734,4.633395,-16.130462,-5.54711446.964222,-5.322051,-24.30396,-12.6400446.997661,-9.558743,-26.929745,-13.68694247.030687,-18.886736,-16.214412,-16.63625547.064665,-38.05465,-8.552244,-21.38322947.097542,-58.589104,-2.022424,-24.06363347.131391,-38.82576,16.182239,-15.25879247.164319,-16.126272,21.461941,-7.95726447.197772,-2.729936,27.877433,-0.02484147.230514,5.369339,33.220884,6.90422647.264853,0.091881,31.375487,7.32562147.297125,-8.212555,26.083215,2.57385947.33068,-9.65212,21.559059,1.64188247.364169,-13.191924,13.23113,2.97894247.398388,-35.538404,8.203726,-0.79999147.430952,-60.479693,-6.278868,-18.12161147.464471,-54.284326,-16.408199,-20.65566547.497522,-11.622917,-11.240729,-7.19213947.530149,-2.387254,-10.882783,0.53123247.564343,5.232266,-8.880411,4.28367947.597218,10.200711,-8.747678,3.43954347.630862,10.458396,-14.812706,-2.34789847.664244,-0.056415,-23.794575,-9.86670847.697237,-8.346186,-23.453988,-12.94261847.730669,-26.341049,-24.290342,-18.8093747.764186,-56.589725,-18.538068,-25.33185747.797644,-60.309699,-4.466543,-20.10542847.831026,-38.397632,16.503821,-10.93665547.864542,-11.107996,31.346007,-5.62373247.897616,6.250736,44.346837,8.68363147.930875,7.421243,40.986754,10.48518247.963815,-6.18609,34.840918,4.21259947.99754,-15.222878,27.201646,2.22249748.0306,-20.500036,18.856358,1.8983748.063795,-40.469588,14.92853,-0.79295848.09751,-63.527022,2.052353,-12.45897248.130927,-54.442049,-14.170439,-16.94377248.16419,-18.850522,-10.226,-5.12841348.196866,-6.535805,-10.548631,-1.32897948.231267,0.122408,-9.75672,1.12636248.264179,4.386184,-11.514426,2.13405848.297527,7.822735,-14.552028,1.48326148.331303,4.802192,-21.210391,-4.5349348.363498,-3.753494,-23.39009,-8.06276248.397572,-15.663875,-19.631209,-14.02199348.430983,-45.878582,-19.786239,-22.55762748.464355,-65.422699,-6.694128,-21.94094848.497775,-40.268767,14.347915,-11.45322248.53101,-16.187626,21.805821,-3.77713848.564621,-1.293364,29.778348,4.06654748.597513,5.654708,35.464181,10.68211248.63097,-0.097268,32.888976,7.7616848.664194,-9.284447,27.646385,2.43274548.697461,-13.252978,18.471626,1.20477548.730918,-16.038132,12.298406,1.78269648.76489,-41.720454,9.931204,-2.29178248.797229,-60.935057,-11.643119,-14.57447548.834073,-41.9316,-16.427204,-15.22901348.863694,-13.238014,-13.081038,-6.80875448.897514,-0.656035,-11.242525,0.96070848.930991,7.198125,-11.292506,4.68741648.964249,10.495657,-13.744555,3.09192348.99752,5.986017,-19.58467,-2.59256449.031051,-3.755739,-25.829121,-10.76905549.064155,-17.741817,-22.384041,-17.183549.097594,-42.402975,-21.631187,-19.89652649.130823,-61.870774,-13.197909,-20.47968549.163559,-37.249272,9.469256,-12.44864749.19751,-13.750541,21.623555,-3.87231149.230216,1.417119,34.441521,3.75813349.264261,5.748534,36.796303,8.16302349.297554,-4.871476,32.077761,4.83002549.330843,-14.891269,27.612266,2.33218549.363861,-19.695855,20.538943,4.07432949.39751,-24.058396,9.521332,4.68023349.430554,-46.449171,3.98978,0.01152349.464212,-63.194665,-13.186088,-15.1127449.49748,-31.980942,-17.564341,-13.13146849.530021,-7.08305,-11.37047,-5.24423749.56417,3.59996,-10.390458,-0.48155149.597505,8.103614,-7.794602,3.29034949.631287,7.312901,-10.189787,1.81232649.664,5.533796,-17.152673,-4.00309849.69765,-1.587712,-18.34862,-11.05217949.731045,-2.579545,-17.164794,-14.54514549.764206,-14.789512,-11.755052,-20.67182649.797527,-42.098152,-16.481674,-29.3960149.830863,-54.575381,0.329514,-20.36550749.863299,-31.678065,12.780854,-9.88810749.897506,-10.620609,19.824548,-3.92169349.931172,5.803602,35.466875,6.22694249.964222,6.396039,37.781253,9.220449.997667,-5.887103,34.053796,4.58805350.030847,-11.688012,30.821658,1.61883750.06424,-15.954781,22.346331,-0.24915650.097554,-24.104037,16.604082,-3.09820850.130951,-50.789564,13.704002,-10.30965150.164166,-58.634297,-16.743549,-23.9644250.19772,-30.156645,-15.482658,-12.98840950.230888,-11.193442,-13.832695,-6.18758650.26424,3.145495,-15.873226,0.39326250.297612,11.899607,-15.331219,-0.02244650.331062,13.489115,-14.322626,-5.42620350.366403,-0.162662,-23.296414,-11.45905850.397794,-9.252274,-27.987421,-15.61898350.431001,-25.133281,-25.41461,-19.57733850.464878,-57.052271,-22.366682,-22.81246950.497517,-62.363698,-2.554555,-16.94796250.531622,-41.728684,17.454054,-11.52415350.564438,-15.271512,28.991525,-1.90495550.598036,5.206976,44.590306,6.62005450.63072,8.789129,50.415607,10.97152250.663764,-8.283785,44.977582,3.58649350.697497,-25.202117,36.752757,-1.72194150.730933,-35.612178,20.9973,-1.22871850.764177,-45.825609,10.842978,-3.18305550.796722,-63.663646,0.33954,-9.46416850.830857,-46.822231,-19.431137,-15.21434850.86417,-20.06682,-13.006366,-7.585750.897523,-8.505406,-14.645256,-4.06699650.930551,-3.454956,-16.481674,-0.15966950.964225,3.834152,-18.04664,-3.7258150.998731,3.884731,-21.365272,-6.49704851.03086,-4.725724,-26.350178,-8.71041751.064194,-11.30762,-21.3114,-8.18651751.097276,-19.085312,-18.85546,-8.49567951.131165,-35.410759,-25.214088,-11.82269151.164362,-61.874515,-26.108953,-12.20053951.197046,-50.46858,-6.880283,-6.76999751.230868,-27.576053,18.068338,-1.60492151.264163,-7.548439,36.963604,1.81846151.296839,-2.780665,47.087398,8.91123751.330624,-7.546045,39.561255,5.64333551.364089,-19.340303,32.444686,1.12082651.39753,-30.655405,19.91149,1.76204651.430983,-35.070171,7.793405,1.44435451.46424,-61.144707,-3.244708,-0.74567151.497569,-60.226049,-29.868882,-16.05145151.530919,-27.531459,-20.480134,-8.56870551.564208,-6.441231,-14.021544,-1.17320151.59766,2.515797,-9.268585,-1.45946851.630472,7.990484,-6.654622,-6.79259351.664188,7.501451,-9.297466,-9.84695551.697688,3.568984,-19.301845,-11.37346351.730092,-2.993308,-24.950417,-9.43289351.764177,-4.352664,-18.994927,-11.441451.797663,-15.979622,-17.244105,-14.53496951.836093,-56.346256,-27.923524,-22.44255151.86417,-51.360452,-9.933,-15.21524651.897528,-29.003646,10.044783,-3.68705351.930664,-9.91594,25.840194,0.04938251.964718,3.492068,47.957871,6.21302651.997519,-4.390075,45.729089,3.19517652.031135,-15.72044,37.634303,-0.82513152.064192,-27.325101,23.1345,0.02379352.097668,-35.816441,12.53529,-1.09852952.131323,-58.689365,6.375987,-7.46284352.164435,-55.57754,-12.58557,-22.97183852.196758,-26.50835,-15.450784,-10.2261552.230003,-10.217471,-14.315892,-4.74712352.264203,-4.701931,-14.755692,-0.42618352.297533,2.324853,-12.989307,-1.96585952.330753,4.484949,-11.201373,-9.04890952.364173,-6.523535,-25.610193,-16.30853752.397499,-4.636238,-41.269579,-6.96034252.430931,-7.890523,-32.094222,-9.25945752.464247,-26.9694,-17.939795,-16.6636452.497583,-60.117258,-21.471518,-27.41922752.530324,-76.526505,-3.324917,-19.81556952.564286,-35.680415,16.414335,-10.78940652.597504,-14.197674,38.88891,-1.25370952.630388,4.711059,48.717608,11.11248552.664378,3.938303,45.450753,7.14919252.704652,-11.709112,32.843634,-0.04085352.731423,-22.114235,21.679672,1.04420852.764183,-31.944429,9.4091,2.31961552.797502,-48.149115,3.504787,-0.58375752.830634,-62.156293,-5.558787,-11.98041452.864264,-37.509351,-12.028749,-13.76520652.89758,-13.798277,-10.381031,-6.55211652.930573,-5.039675,-11.493327,-4.08360652.96419,0.944247,-11.036018,-4.25360152.997589,2.634763,-9.826603,-5.0754453.030636,2.274274,-16.871943,-9.33053753.064223,-4.037965,-24.20325,-11.61723153.097524,-0.820941,-19.725335,-7.16131353.130591,-9.26649,-16.192714,-9.82720253.164187,-38.879931,-21.71813,-17.79164953.197699,-68.844435,-12.647523,-19.29166953.230934,-50.236484,7.297638,-11.74472753.264469,-25.071928,17.619409,-6.663953.296861,0.735645,39.044688,5.55115553.330887,11.125803,52.896986,13.04332853.364198,4.705822,50.832961,8.40020753.397741,-17.231984,43.571387,2.12014153.430589,-32.14525,28.084689,-3.42472853.46435,-46.964691,16.08512,-4.58431253.497996,-63.11326,5.274166,-9.46805953.531086,-50.730904,-14.720077,-18.53896553.564224,-28.706755,-14.965342,-9.37797453.597509,-11.413567,-12.866151,-4.18805753.630608,-3.35694,-11.655988,-3.48174253.664182,2.250181,-10.514063,-3.65203653.697527,4.544956,-9.895589,-5.60816953.730921,2.664542,-17.999951,-10.13845953.764194,-0.850421,-23.439473,-10.71593153.797536,0.291205,-21.92763,-10.40751753.830852,-12.717555,-18.518464,-14.65483353.864198,-61.018408,-25.519959,-25.99402753.896656,-71.936956,-6.037195,-19.72219253.931027,-41.161537,16.792483,-9.64508653.964182,-5.383106,35.169534,0.63179353.998622,7.838597,44.805792,9.76719554.030908,3.450317,44.189413,9.83034454.064172,-9.893194,39.85291,4.26257954.097487,-20.602242,31.161049,1.13818454.130456,-29.378053,18.833313,0.97148254.164157,-46.928926,5.076188,-5.61744754.197595,-60.427318,-10.189488,-19.52301754.23084,-38.088021,-18.643267,-17.79479154.264188,-12.972547,-11.229057,-6.95749954.29752,-2.733528,-10.704259,-3.51406554.330663,-0.675488,-13.300564,-2.09574954.364285,2.291782,-15.109299,-3.05436254.397261,3.337636,-16.171015,-5.33447254.432157,-8.950893,-23.899176,-10.16135554.464178,-10.641409,-23.899924,-9.20708254.497522,-14.721574,-16.969061,-9.13091354.530872,-49.513559,-19.914334,-13.94956654.564266,-64.813353,-10.619112,-16.94526854.597499,-49.542889,9.340713,-14.23568354.630865,-15.36025,26.92735,-5.49264454.664183,3.028773,42.345363,5.14562254.697743,10.271941,50.201917,12.96521554.730861,-2.475244,43.914518,8.08670554.76429,-24.612823,31.640205,2.19511254.797523,-27.532506,20.718066,-0.09592154.830964,-43.000499,7.42663,-4.85366954.863832,-54.219381,-8.921114,-19.78713754.897476,-40.698692,-17.507925,-19.09054954.930626,-16.92327,-12.627919,-8.89417854.964173,-3.843878,-10.648891,-3.2732954.997503,1.34544,-12.309629,-0.77170955.030472,6.069368,-15.310868,-0.38054255.064372,5.351681,-16.051301,-2.04487155.097593,-6.034651,-22.738246,-9.85084655.130903,-9.206184,-18.642219,-12.35571955.164159,-16.639099,-15.206118,-14.16325655.197497,-56.949167,-18.572934,-21.55262555.230804,-64.023238,-9.487812,-18.91397155.264149,-42.454452,9.657507,-9.19720555.297634,-11.365232,24.140999,3.19218355.330924,1.723139,35.13377,12.49518655.364303,4.852771,40.096528,16.66738155.397507,-4.456217,40.495776,12.91104455.430569,-16.674564,35.943787,4.88045555.464164,-23.220994,26.563269,3.44657655.497542,-29.117674,16.597498,2.86491455.530526,-56.870156,8.443304,-5.44685455.565037,-66.010048,-6.158555,-16.68907955.597132,-42.622052,-15.436568,-15.38479155.630938,-11.787225,-13.291586,-5.81228255.664229,-3.139359,-14.722023,-4.5349355.69753,2.051904,-14.047732,-7.1960355.730995,2.515498,-15.145213,-10.3686155.764219,1.488947,-30.07913,-12.1206355.797695,-4.709413,-27.686339,-13.87609155.830956,-14.198871,-21.38293,-15.49597655.864157,-58.944955,-27.985775,-23.5117555.897621,-75.746117,-17.794641,-19.58302455.930558,-57.083397,1.809183,-11.27275355.964169,-25.991334,24.905674,-4.3921755.997632,-5.151309,47.55578,4.0402156.030629,1.251314,45.592166,8.71565456.0642,-5.570908,38.246792,4.75909556.0972,-18.492426,27.684394,-0.42543556.130977,-24.833247,19.303192,0.16385956.164188,-28.323968,11.449631,0.45940456.197635,-59.834882,8.585165,-8.29979656.230525,-65.75356,-22.238139,-17.87874156.264561,-46.881788,-27.163786,-12.29017556.297437,-17.400183,-21.377094,-4.19015256.331262,1.604621,-20.657012,0.8173556.364217,8.526954,-17.577809,-5.49548856.397566,11.319591,-13.130271,-14.41540456.430527,-3.190837,-20.785854,-13.6588156.464275,-8.847041,-19.055832,-11.99657656.497525,-10.946382,-10.143846,-11.96021356.53118,-27.216311,-18.980711,-14.73519156.56419,-50.800937,-31.892204,-21.25378856.598169,-49.432901,-15.603719,-14.6392756.63067,-23.708531,10.274335,-3.37456.664369,-3.468275,36.646061,3.16599656.699014,-1.222882,45.914796,7.82348356.731187,-13.375236,37.997786,5.27581256.764176,-26.281342,26.387738,3.17721956.797814,-31.52947,17.87889,1.11843156.830675,-33.613547,8.527104,-1.2824456.863278,-40.002403,1.28259,-5.56462356.89755,-56.207537,-13.493454,-16.76135756.932087,-42.897246,-23.861466,-18.24431856.964164,-20.816232,-19.331026,-10.93066956.997521,-4.370771,-14.236581,-2.65930557.030874,3.441937,-11.834064,-0.20456257.064246,10.003781,-9.025565,-2.54482857.097442,12.270572,-11.685618,-7.57178357.131408,4.64372,-25.411018,-9.55530157.164195,-6.880732,-32.853361,-13.75158857.198006,-24.180056,-35.227296,-19.46465757.230959,-49.801023,-29.734802,-19.92031957.264179,-59.168971,-20.106924,-15.87382557.298342,-42.120748,-0.069285,-13.1096257.331119,-9.566674,40.534084,-2.05938657.363289,5.419918,56.700161,12.71770557.397595,-5.810187,49.347904,6.40471857.43044,-20.380771,36.167952,0.37874657.464264,-44.016725,27.823113,-0.45566357.497503,-51.880013,14.469874,1.78239757.53022,-50.014414,2.80805,-1.70727657.564173,-54.764829,-5.457927,-7.51192657.597508,-38.480684,-18.488985,-12.78459657.630888,-23.18059,-17.613124,-10.06633157.664175,-8.754861,-15.859908,-4.71180757.697524,-2.985526,-17.404821,-3.31189857.730715,2.238808,-18.062353,-4.68307657.763898,5.87603,-18.023894,-3.77788657.797528,1.460066,-22.544907,-3.63647357.830632,-7.287462,-26.68029,-9.77991557.86423,-17.798382,-21.535416,-14.04668457.897505,-38.88472,-20.533706,-13.75009257.930657,-61.240478,-25.392612,-15.39272257.964408,-57.318785,-11.023597,-18.24117657.997609,-27.558395,20.678261,-10.89954358.030934,-4.649257,44.417917,1.92635458.064192,9.177901,57.669848,12.46376158.098135,-2.04517,46.998211,12.45044358.130916,-28.081098,29.394065,4.35520858.164379,-35.306757,20.281558,0.42184358.197523,-38.535902,13.488666,-0.93392258.230559,-49.518647,2.365855,-5.78040858.264285,-48.986516,-7.217579,-15.05078858.298023,-37.626073,-13.743059,-13.62962958.330607,-13.065924,-11.113982,-7.52404758.364271,-6.0351,-11.605259,-5.23765358.396763,0.892022,-12.744491,-3.63886858.430876,5.501473,-12.817816,-3.54189958.464256,5.686881,-15.840304,-5.42769958.497763,-2.898285,-25.765972,-8.18397358.530382,-4.696694,-27.884167,-10.25757558.56339,-22.466793,-24.449114,-20.64967958.597723,-52.342708,-21.221166,-26.58706258.630747,-63.027514,-9.181792,-19.33985458.664198,-42.480191,13.689786,-10.44687358.696879,-17.362622,24.518997,-5.50506558.730911,-4.115331,35.998257,3.33554158.764188,3.645153,47.132291,10.4314658.797524,-4.619029,43.10076,4.45112958.831244,-21.371856,33.486051,2.82226658.864216,-30.836473,20.241304,4.43272358.897543,-55.898075,14.08215,2.64823158.930618,-69.174996,-3.673734,-13.37433858.964292,-50.07891,-12.797614,-13.37344158.997076,-14.294343,-10.93426,-4.22082959.030669,-8.937724,-10.735984,-5.16492659.064186,-6.272883,-12.063167,-5.99095559.097519,-0.41496,-14.448176,-6.13610959.130562,4.801743,-22.750516,-5.22807659.164166,0.949933,-32.616476,-6.29787359.197689,-1.379109,-29.262828,-7.2880659.230959,-14.314994,-16.751929,-13.14957559.263426,-57.119012,-26.423802,-22.20461959.29698,-77.235214,-20.644292,-18.21708359.330838,-48.44451,8.332269,-11.78632759.364216,-19.153549,29.653546,-2.32320759.397571,0,46.04693,8.62781459.43074,7.828571,55.592654,13.59536159.46408,-9.501579,48.525018,4.48913959.497598,-29.0023,42.963388,2.51998759.531658,-36.508539,26.591252,0.1090959.564079,-46.347563,12.283741,-3.54429359.597657,-66.77592,8.654899,-13.38660959.630907,-56.923429,-11.490334,-24.20085659.664222,-23.944069,-13.951062,-11.20436659.697503,-10.391655,-14.900098,-5.14158259.730917,-5.142181,-17.177813,-2.55724859.764185,1.335863,-19.001063,-2.95395259.797523,4.583264,-14.837547,-6.7643159.830924,-2.765252,-20.175311,-9.82705259.864544,-3.447773,-25.148096,-7.92987959.897524,-5.708878,-20.236066,-12.29960359.930543,-45.848504,-30.278006,-29.69843959.963904,-76.417266,-23.974745,-35.55516459.997535,-58.591349,10.400484,-18.09527460.03035,-26.697648,29.172743,-5.03952660.064222,-6.822072,47.948593,3.07785660.097508,6.352193,59.766196,12.88021760.131106,-13.223199,48.248178,3.02084260.16427,-30.131056,36.565853,-1.61749160.197872,-42.415695,25.710604,-1.89343260.2309,-45.152814,15.500316,-2.44621360.263409,-61.017959,11.025692,-7.020260.2976,-61.135728,-5.581532,-17.03355760.331244,-36.38673,-13.111416,-11.91277660.364245,-11.321686,-12.800308,-4.09677560.39759,-6.865918,-15.511539,-2.535760.430974,-2.081533,-21.666054,-2.77797260.464623,2.439928,-23.380513,-9.62638160.497564,-6.733184,-31.424869,-10.97376660.53091,-13.121591,-36.61299,-4.75071560.564262,-22.228113,-24.028617,-11.29998860.597576,-49.872103,-18.41551,-19.34509260.630856,-77.968165,-15.537278,-24.00422560.664278,-71.375196,3.362178,-23.98372460.697702,-33.539623,27.162589,-10.97197160.730647,-11.555578,37.532995,1.96181960.764349,1.616443,50.327168,11.76373160.797533,2.026465,51.884053,11.83481260.830824,-23.115496,43.176031,4.09842160.864191,-35.47301,29.392269,0.24032760.897573,-39.059802,12.568511,4.49123460.931084,-57.757688,3.476954,2.60857660.964226,-72.853968,-11.080761,-10.26565660.997663,-50.62361,-22.432226,-17.34990361.030693,-6.970069,-12.016778,-7.01241861.064184,2.744152,-13.691731,-3.90149161.097528,4.335755,-14.086788,-2.76375661.130557,3.22705,-13.894198,-6.30939661.164163,0.351661,-20.7248,-12.13080561.197523,-6.610477,-32.556768,-17.83564461.23101,-11.202121,-30.996292,-15.52904761.264191,-23.940627,-18.646259,-12.27087161.297578,-55.849142,-19.06511,-19.89757461.330926,-76.341098,-7.883939,-22.01636861.364207,-39.748758,19.632556,-16.73442161.397529,-14.390264,35.168487,-5.5152461.4305,-0.190795,44.246726,9.87164661.46418,3.373102,46.886727,15.04749661.497632,-7.354352,38.547574,9.52806661.530012,-23.665134,32.457406,3.42248461.564425,-29.934126,24.063184,-0.38832361.597511,-49.748798,13.816084,-5.89458561.631037,-72.248961,-6.702208,-18.41281661.66419,-56.940787,-22.890732,-22.78209161.696787,-13.901979,-15.402898,-9.68279761.730921,-3.548034,-13.290239,-5.24453661.764209,4.482255,-13.779272,-0.42872761.797525,10.087581,-13.62514,0.52195561.831136,5.81288,-17.688096,-3.58140561.864208,-4.493778,-29.841048,-9.51923761.897683,-9.937788,-28.750301,-12.73835661.930468,-30.813129,-20.750389,-22.18860761.963512,-70.21681,-19.404201,-31.16613761.997531,-64.882638,-4.113086,-24.32670662.031207,-35.940644,17.999951,-12.15968762.064169,-14.773799,30.276808,-0.69958162.097559,3.025631,43.827576,12.05927662.130763,5.661591,45.291234,11.13343562.16426,-8.710417,41.015037,5.24558462.197122,-22.557327,33.504756,1.46081462.230608,-29.420701,25.531631,2.91639162.264155,-38.234072,15.981268,3.45899762.297059,-65.963808,14.830215,-4.37077162.330861,-73.395825,-11.310912,-19.48276362.364172,-28.898747,-16.429598,-8.82893462.397225,-4.80309,-14.969831,-1.15135362.430912,3.16824,-10.488474,-0.38443362.464188,7.544548,-8.972142,-6.22604462.497678,0.736692,-13.08044,-12.96072562.530884,-7.525245,-23.714067,-19.57135262.564193,-8.452582,-22.957922,-16.85503362.597526,-6.34546,-16.400268,-11.72437562.631705,-25.206756,-12.661589,-13.16917862.664611,-61.686115,-21.150235,-24.74959762.697525,-64.398543,-4.285924,-19.00076462.7302,-32.134027,16.156201,-11.87596462.764145,-6.912008,36.729263,-0.07212862.797487,5.192461,48.278855,10.99935562.830636,2.084077,42.4552,10.21013862.864161,-13.229334,36.827578,4.295862.897493,-22.000506,32.957063,-0.2766962.930821,-25.463094,20.076397,-1.9236662.964243,-37.830036,10.734038,-4.05502562.997043,-59.144429,4.595685,-10.00871963.030582,-52.86586,-16.968163,-19.67340963.064182,-24.900586,-13.321365,-10.2637163.097503,-8.560624,-11.10201,-2.61590863.130872,-1.428342,-9.445612,0.96429963.164176,1.072341,-8.205521,1.17080663.197511,1.454679,-10.769953,-0.26741263.230016,-2.970712,-22.580372,-5.14936363.264428,-5.615801,-25.690701,-8.60731363.297498,-6.389754,-19.263686,-9.48392163.330781,-20.16753,-16.187476,-14.26755763.364159,-68.421993,-17.606091,-26.85956263.397552,-62.773869,-7.230298,-22.04524963.430894,-40.297798,9.550063,-14.25334163.464447,-19.61849,22.494028,-5.74554163.497512,-2.625186,39.686058,8.23260763.530937,9.07764,48.550307,17.74301563.564241,-1.56347,44.547658,9.59181463.598068,-17.383273,34.821465,2.42990263.630856,-22.633047,21.334296,1.29156863.665136,-37.323345,10.294537,-1.00111163.697135,-72.792315,0.619971,-15.58740863.730857,-54.395211,-21.493965,-27.16288863.764174,-17.804817,-14.143054,-11.14690363.797507,-4.175786,-11.22801,-3.11496863.830154,4.211102,-7.446383,2.64134863.864177,3.72985,-7.854908,2.40760563.89751,4.102761,-10.214628,-1.09014963.930924,2.30106,-18.72976,-10.18933863.964203,-5.473789,-23.829592,-15.62975763.997644,-4.608554,-22.633945,-14.98015764.030797,-33.274007,-25.929382,-23.74579264.064416,-67.273483,-22.004247,-28.17956364.097289,-52.729536,-2.944075,-15.84090364.131255,-32.745019,11.846035,-10.46782364.164158,-3.785518,38.694524,-1.48176464.197516,7.886483,54.300188,8.29770164.230766,-2.835584,51.34055,7.30467164.264191,-23.663189,39.935064,-1.08506164.297496,-37.549456,28.585993,-1.56152464.331126,-37.601831,14.775296,-0.41136864.364172,-57.917208,13.192672,-7.76093264.397522,-63.139746,-5.066162,-20.4689164.430658,-41.841515,-12.250071,-15.00305264.464165,-18.621868,-14.653636,-6.48133564.497529,-6.182199,-16.774525,-4.14241664.530091,1.38704,-17.458693,-5.490164.56325,7.884388,-15.700688,-8.75246664.597578,0.567745,-18.520559,-13.45828864.630813,-12.957134,-23.287136,-15.17125164.664137,-14.539758,-20.049461,-10.95401364.697478,-28.771849,-12.936633,-11.56171364.730534,-56.162345,-16.299409,-21.6549864.764221,-64.347365,-9.75687,-22.25085964.797509,-44.075235,10.101797,-17.98034864.830873,-9.7443,30.294017,-2.2211564.864261,4.078967,40.60277,5.57225464.898135,9.146925,49.891856,10.88787164.930567,-10.133072,39.512472,6.747464.964912,-27.688285,31.072011,0.21339164.99752,-30.322001,22.537275,-1.31356665.030581,-36.76802,13.59596,-1.63559765.063591,-56.899486,7.509682,-9.77018865.097767,-51.408787,-9.611417,-18.12400565.13058,-30.864307,-10.963142,-14.58240665.164222,-10.900142,-10.744214,-7.57567465.1975,-5.654708,-13.825213,-5.43832465.23107,-0.242422,-19.09459,-5.05733365.264321,2.117747,-19.479022,-9.14602765.297603,-5.241693,-26.551896,-12.7239965.330863,-8.869786,-24.727449,-9.98582365.363807,-10.596516,-16.824357,-8.35187265.397181,-34.991908,-14.056561,-18.26736365.430843,-59.734172,-10.690941,-31.27537665.46422,-61.152937,2.550514,-25.71314865.497528,-23.916684,20.365956,-10.42278165.530656,-3.70905,32.529384,0.98405265.564243,5.604278,42.20395,11.72332865.597523,3.212535,43.264769,12.74703565.630955,-11.38693,34.922324,5.88066965.664174,-20.956597,26.523015,4.80159365.697646,-24.802121,16.860869,4.75550365.730527,-49.17357,5.316664,-4.49677165.764188,-66.035936,-5.275363,-18.22965365.797707,-46.28621,-16.229077,-21.88857365.830604,-9.648828,-9.296568,-9.4674665.864165,-0.518363,-11.063552,-4.04215565.896562,2.503227,-13.002027,-1.63230565.930605,6.909763,-14.602159,-1.30518665.964201,2.973555,-16.6593,-4.91966266.001742,-7.890224,-24.740917,-15.20866266.030833,-11.608402,-23.948708,-17.18798966.064171,-27.579644,-19.237499,-19.18078466.097525,-66.070803,-14.936311,-26.37202566.130911,-68.0835,4.898861,-21.69358866.164179,-34.639948,19.583174,-10.26954766.197701,-9.801912,30.23865,0.64750566.230939,6.373592,42.161451,10.87649866.264334,6.601648,47.603965,15.39900766.297523,-9.503075,40.67011,10.09236966.330481,-21.73055,31.892204,2.83019766.364169,-26.393724,24.275378,0.60575566.397526,-34.609421,13.693527,-1.74708166.430837,-60.59028,11.100514,-9.40191766.464631,-61.091134,-7.573579,-23.30793666.496838,-26.04326,-11.81027,-12.58631966.531024,-7.514321,-11.179974,-3.0299766.564186,-1.600731,-10.861534,1.52725666.597501,4.366731,-11.651499,1.05722766.630022,4.708515,-13.501236,-3.03505866.664401,-0.037261,-20.337374,-9.88017666.697366,-7.68626,-25.622464,-12.81961266.730898,-11.21125,-19.925856,-13.87384766.764167,-27.058438,-15.137132,-18.97472666.797638,-66.827697,-16.411342,-31.94772266.830881,-63.105777,-0.508936,-24.81663766.864218,-31.884273,20.313132,-13.28036366.897539,-3.305313,41.774475,3.33449466.930768,9.111609,54.243174,15.47173466.965201,3.407819,50.491476,11.69983466.997516,-17.476201,44.086907,4.44289967.030819,-26.685228,33.02949,-1.68438167.063834,-34.33318,18.849026,-3.897667.099381,-57.190841,3.959852,-10.11391867.130904,-66.367245,-12.056134,-13.24639467.164174,-35.844274,-19.733864,-15.26028867.197488,-15.244277,-12.074689,-10.00378167.230931,-7.175379,-12.370982,-5.80285467.26438,-1.372525,-11.810869,0.21982567.297524,0.710804,-11.379448,-2.05070767.330833,2.951109,-18.565602,-5.27611167.364315,3.841783,-23.753424,-11.1314967.397518,0.147698,-14.880046,-10.44447967.430858,-15.343041,-23.00057,-6.79079767.464214,-53.7082,-54.666813,-11.35879867.497511,-52.355877,-21.321726,-5.80674567.529959,-27.897336,12.604276,-4.68068267.564811,-4.142715,49.208886,0.98689567.597205,1.213155,59.617002,3.49880267.630561,-21.144548,47.155635,5.37831767.664165,-30.302098,39.463539,0.66471467.697742,-49.513409,35.080048,-1.27331267.730902,-45.473948,18.270506,-2.44262267.7645,-56.980293,13.284104,-7.01975167.797504,-67.487323,4.880156,-14.72890667.830835,-37.602729,-17.824121,-15.01876567.864172,-17.599657,-14.298084,-7.40059267.897527,-11.505747,-14.191838,-4.91277867.930933,-7.372908,-17.710243,-4.98864767.964262,0.735794,-16.323053,-8.08909967.997476,4.680382,-18.913372,-12.07274468.031263,-2.699409,-27.737218,-12.44894668.064444,-5.070651,-25.973227,-8.25101368.09758,-14.531228,-19.697202,-9.47958168.130583,-32.791109,-15.675548,-12.84804468.16504,-75.323974,-31.851052,-21.59946368.19739,-68.857903,-8.997133,-14.18480568.230593,-39.718231,12.665929,-7.69583768.264247,-16.071353,35.71618,2.30569968.298344,4.131193,59.323552,20.2677968.330398,-5.756764,54.872572,13.51006568.365129,-21.509976,45.35558,6.03420268.397406,-42.10758,25.943747,-4.11248768.430513,-47.598877,13.911407,-5.01199168.464171,-54.658583,-1.002907,-10.2179268.497917,-62.373275,-18.048286,-22.09732568.530655,-33.485004,-22.220481,-20.34485668.564202,-12.152653,-15.194894,-11.06325368.597516,-2.336525,-15.027145,-3.8265268.630924,4.868633,-13.171273,3.2816768.66431,6.524732,-9.910852,0.53721868.697521,8.763989,-12.281047,-4.82329168.730864,-1.901513,-25.384532,-15.15284568.763911,-10.52379,-27.410398,-11.30387968.797482,-23.35672,-26.664428,-9.52986168.829984,-50.147297,-22.6947,-20.02716468.864136,-57.48025,-6.437191,-16.1270268.897556,-37.169512,8.852428,-12.06436468.930411,-9.157699,26.85642,-4.49033668.964164,8.642179,41.420719,5.82096168.997478,-1.714459,35.69508,5.7919369.030581,-14.033366,29.027888,4.13403669.064143,-23.595849,23.887204,-0.07706669.098021,-25.097965,17.989177,-0.80343369.131083,-26.443106,10.707402,-0.4905369.164428,-48.10063,6.48373,-4.31330869.197542,-59.331184,-24.655322,-25.55183269.230474,-27.77837,-16.057137,-18.68232369.26415,-9.235065,-13.237415,-7.72456969.297533,3.707554,-8.262835,-1.58801169.330891,6.30326,-6.314184,0.53287969.364247,8.808433,-8.191455,-0.36931969.396914,8.548952,-17.549975,-6.33962369.430929,-6.881481,-27.437483,-18.05561969.46477,-7.357944,-24.532165,-16.0643269.49753,-20.335579,-22.868734,-13.55226469.531294,-54.580619,-26.791475,-17.23737169.565405,-52.114054,-9.774528,-12.92915169.596611,-29.800645,10.272839,-8.67001369.632094,-6.758624,28.795044,0.33460269.664135,1.267176,34.717912,7.24885469.697509,1.012185,41.175753,11.04709169.73111,-10.790603,35.351799,3.84103569.764273,-22.430131,27.569768,2.27831469.797779,-30.357466,16.57999,3.5706369.830933,-39.532674,6.436592,1.2029869.864628,-68.890824,-3.495659,-12.46914869.897372,-44.992846,-19.567461,-17.92468169.930628,-18.750561,-15.167959,-6.53475869.964189,-1.200885,-10.581702,1.7768669.997556,1.075185,-10.859439,-0.79759770.030718,-0.080358,-11.239382,-5.36948870.064317,1.390033,-15.15494,-12.2587570.097359,-2.912351,-25.056365,-16.05474370.131017,-1.297105,-24.194571,-13.03883970.164182,-1.570802,-19.492939,-10.8672270.197074,-35.713935,-23.952,-14.66560770.231515,-74.507971,-32.292649,-22.07113870.263523,-70.792337,-9.775276,-15.50540470.297483,-30.021368,20.80426,-8.89717170.330759,-7.681472,41.078635,-0.9891470.364202,6.235173,55.395275,11.90349870.39798,-1.137286,48.811734,9.69237470.430732,-19.903559,39.110381,3.7466170.463961,-31.223899,26.259644,0.75913970.497495,-39.157668,16.187775,2.9087670.530469,-59.369492,10.696777,-3.53531570.564165,-64.433859,-2.385009,-16.785370.59836,-41.015336,-10.694682,-16.50950870.630925,-11.209005,-10.831007,-9.24778470.664274,-6.34097,-13.104532,-7.52225270.697523,-1.18607,-16.908755,-5.22253970.730932,3.236927,-15.450634,-5.67969870.764191,2.280858,-20.356828,-12.13409870.797526,-5.673712,-27.495096,-8.93413370.831158,-5.102974,-26.907448,-7.64735370.864187,-22.734804,-18.312406,-13.47804170.8975,-57.354101,-22.7574,-21.32786170.930919,-74.725403,-16.907259,-21.73788370.964421,-47.676542,12.319655,-12.91717970.997529,-18.848876,34.740358,-3.03386171.031486,-0.798794,45.60294,7.95412171.063911,7.625056,47.947994,12.77771271.097576,-3.929923,38.344658,5.84056471.130839,-20.807253,29.182021,1.42130971.164203,-31.569873,18.626207,-0.88079871.197612,-38.003173,6.265849,-3.07830571.230987,-55.143576,-1.443456,-7.7910171.264193,-54.810919,-16.325297,-17.55356771.296683,-30.978185,-16.77273,-14.00134271.330958,-7.561458,-12.046257,-6.01115771.364311,-0.49891,-12.515537,-1.92710271.397286,5.020671,-12.350032,-2.388971.430858,9.586426,-14.497109,-6.94088971.464259,3.409465,-19.569407,-11.48434871.497159,-7.846678,-26.022908,-15.62332271.530569,-10.686003,-18.051878,-17.69946871.563589,-26.114191,-20.197159,-15.40050471.598228,-49.774237,-30.532698,-15.87891271.630886,-59.184234,-20.700109,-9.17610571.664158,-31.603992,9.66439,-2.59046971.697744,-11.001001,29.399901,3.3698171.730317,0.109688,40.628958,7.75988571.76446,-3.989481,34.021623,7.71095171.797498,-13.028962,25.258981,6.46098471.830541,-21.349709,18.21843,2.95963871.864207,-25.617226,11.408928,1.17275271.897618,-31.77638,2.248834,-0.06314971.930471,-56.023326,-11.214841,-3.57526971.964175,-57.558813,-32.546144,-14.79639571.997565,-17.624348,-17.472759,-12.62313172.030546,-1.136389,-10.605944,-6.83703772.064285,7.86254,-5.748833,-1.64921572.097066,8.948499,-6.28665,0.91880872.130829,7.368718,-8.527403,-2.011872.164217,6.230983,-18.254494,-8.20746772.201004,-5.39807,-25.818347,-13.28096172.230636,-7.092627,-19.624924,-13.33273872.264167,-20.789595,-23.647776,-12.57898672.297505,-47.453424,-43.847329,-16.86101972.33068,-51.519672,-20.809348,-9.33053772.364181,-32.450073,2.063576,-3.68331172.397614,-13.372243,22.808578,-0.5155272.431008,-3.100003,42.195271,6.35099672.464449,-6.661655,39.272445,8.75845272.497531,-14.717085,31.307399,6.38451672.531276,-22.754557,21.265011,3.45645372.56419,-27.04467,13.606435,4.0318372.597445,-32.02404,3.754242,1.27675472.630906,-65.380201,-10.881287,-7.5818172.664484,-55.964966,-35.796987,-21.48872772.697499,-16.058634,-21.516112,-9.72649272.730881,0.834259,-11.979516,-3.2020672.764204,11.352213,-2.575056,4.75056572.797587,10.798684,-2.045769,2.16862672.830865,7.318438,-5.944267,-1.9655672.864386,4.852771,-16.459826,-10.43056272.897243,2.576253,-23.533448,-16.3996772.931038,0.524798,-23.962924,-17.69767372.964192,-9.369594,-22.076375,-17.23841972.996707,-49.08154,-38.128275,-24.55206873.030933,-62.466652,-25.013417,-17.03984273.063879,-37.290723,-2.625486,-9.30030973.097499,-12.491744,25.937612,-0.04683873.130537,0.811214,42.726054,8.82788673.164187,-0.642567,47.146507,11.99822273.196645,-14.807469,37.321549,8.22422773.230762,-27.215263,22.804538,4.67783973.264735,-34.996098,13.489713,4.58341473.297507,-43.870074,0.237633,1.84614573.330583,-63.626236,-15.051237,-9.70733873.3643,-41.987716,-25.999115,-18.08479973.397491,-20.207185,-20.231128,-12.90221573.430451,-0.401791,-9.703747,-1.42639773.464384,9.801463,-4.640877,5.49399173.497504,11.126851,-4.893025,2.24988273.530175,8.324936,-10.599509,-6.79169573.564186,-3.064987,-25.609595,-17.16853573.597573,-11.175635,-30.021518,-16.23790673.63084,-7.140213,-23.605427,-11.26751573.664259,-28.685206,-24.560298,-13.06846873.697601,-66.055838,-32.864734,-23.24882773.730636,-58.927297,-11.52535,-18.30612173.764087,-25.118766,18.540911,-8.11977673.797556,-3.04284,46.09302,7.20800173.830997,1.035679,52.894592,14.16819473.864144,-9.066268,41.718508,12.61534973.897488,-25.036761,24.782518,5.46765473.930979,-32.643262,17.077403,2.98956773.964277,-34.755323,7.92509,0.79400573.997513,-46.090028,-0.717538,-4.28996474.030823,-51.352222,-9.564279,-11.2151474.064178,-44.381404,-21.954715,-14.6645674.097526,-16.437679,-15.524857,-11.16022174.130515,-6.289194,-15.583368,-5.35766674.164167,6.591173,-16.060729,-1.9067574.197533,11.506196,-14.725913,0.78532674.231044,11.352513,-14.964594,-1.52665774.266796,4.128499,-22.473527,-6.34231774.299484,-12.236453,-24.841477,-8.46530174.330832,-25.117419,-23.934043,-11.50185674.36438,-51.535235,-23.316466,-17.33448974.397493,-66.304545,-14.225807,-17.13411774.431151,-42.768104,3.75095,-12.67206474.464161,-19.243484,20.769543,-5.57764274.497699,1.368335,39.975766,4.53073974.530838,9.827202,46.825223,8.7006974.564356,-6.783015,36.293502,7.34193274.597531,-22.641127,26.933785,4.67589374.630631,-35.173275,19.893533,2.4559474.664178,-34.137447,9.290732,-0.31529874.697931,-43.115126,1.313416,-2.71751674.73093,-51.292065,-8.341098,-9.65047474.764329,-40.244376,-20.369847,-16.03573874.797568,-15.694403,-15.386886,-8.81546674.830956,-6.887466,-14.264415,-3.45091674.864259,-1.78554,-11.755202,-0.42618374.897352,4.736648,-7.235985,-1.15105474.930796,7.731153,-10.037151,-4.55124174.965447,5.020222,-22.17065,-6.71283374.998913,-1.911389,-23.769884,-9.30030975.030423,-6.143591,-17.373247,-10.73643375.064413,-30.333972,-24.770696,-16.36929275.097797,-64.152081,-32.87027,-24.03594975.130804,-46.899596,-3.444481,-16.02481475.164267,-26.652905,15.795262,-9.34011475.199884,-0.161165,43.819794,5.93633675.230879,7.734595,52.96642,12.72967775.26416,-5.672665,42.291491,9.57550375.297517,-23.362406,29.546551,5.63345875.330811,-40.858959,16.721701,0.92733775.364158,-43.157175,5.199494,-0.50639275.397547,-44.175945,-5.574499,-3.52229675.430843,-46.630688,-12.268028,-7.8748175.463527,-31.781618,-20.025967,-13.98084175.497469,-14.166398,-14.441143,-11.85950375.530492,-7.31769,-12.666976,-8.403275.564139,-0.536021,-9.233868,-1.63080975.597476,3.341826,-5.489801,2.60648175.631055,7.672044,-5.957435,3.38148275.663598,4.40055,-20.19267,1.07653175.697496,0.935568,-24.514508,-0.98300575.73051,0.098016,-18.135079,-6.03180875.764172,-7.941252,-16.210371,-12.37382675.797748,-39.163056,-28.780229,-26.26143975.830851,-60.432705,-21.338486,-22.97333575.864237,-38.668037,0.962653,-14.93930475.897495,-12.912091,20.840175,-5.55564475.931526,1.706977,35.225501,5.26683375.964646,6.961091,44.225177,10.90448275.997691,-4.907241,37.194353,9.02721176.030602,-25.70357,26.666223,3.17901576.064493,-25.830019,18.728563,-1.41412676.097528,-26.386391,11.535227,-1.84060876.131421,-44.595244,2.612915,-5.76753876.164171,-51.433927,-11.106051,-16.41927376.197849,-38.62494,-16.671421,-16.43663276.230856,-13.773286,-12.279999,-6.52413376.264195,-6.064131,-10.319228,-2.77991776.297523,-1.170657,-10.221361,-0.99482676.330764,4.054576,-7.773502,-1.07099576.36419,6.179206,-13.88926,-3.98738676.396956,-3.723117,-17.017994,-13.0005376.43106,-11.223969,-19.482315,-13.18399376.463997,-18.125652,-14.762426,-10.65966676.497516,-42.663952,-15.271063,-19.07289176.53013,-65.414319,-8.463655,-21.51326976.564113,-36.067542,22.147156,-17.22659776.597535,-10.517056,28.593325,-5.90191876.630476,2.64868,33.317703,7.49187476.664197,11.30328,37.570256,14.28446776.697533,-2.219953,29.49672,9.74684476.730781,-19.184076,25.940605,5.42919676.764353,-23.766592,19.925258,2.77333376.797518,-21.580159,11.103058,3.1517876.830724,-29.310564,9.759563,1.67854576.864328,-48.340358,3.428021,-10.52917776.897592,-45.570318,-11.45008,-21.98943276.930877,-17.573768,-10.486678,-11.35011876.964048,-7.035613,-9.833038,-6.1609576.997388,-1.404698,-8.777008,-2.78784877.030504,3.126191,-8.557631,0.29389977.064317,6.302662,-10.522892,0.5530877.097905,2.735922,-16.398024,-5.88470977.130987,-4.981165,-23.624731,-9.13016577.164185,-7.796248,-19.229568,-10.06663177.197555,-28.401333,-17.480541,-19.13993177.230742,-61.586602,-17.588433,-25.39859877.26426,-47.510438,1.953439,-17.41185577.29725,-27.357724,14.155325,-9.63685677.33092,-12.561478,19.730423,-2.97804477.364357,1.322544,30.535392,6.23996177.397441,8.64622,37.116838,10.97496377.430984,-0.59528,30.105018,7.42558277.465226,-15.577681,23.004311,4.01312577.497671,-16.130911,16.260053,3.2605777.530988,-20.655964,10.006025,3.39090977.564179,-56.865218,-0.960408,-6.63202677.597296,-66.537389,-22.848982,-19.38489777.630795,-34.400669,-16.399819,-14.37380477.663301,-8.735108,-10.814995,-8.02729777.697535,2.760763,-8.242932,0.4402577.730771,9.134205,-6.387659,5.15609777.764188,11.942255,-8.213003,4.88733977.797644,5.364999,-10.241563,-2.40221877.830912,-2.851147,-15.149104,-11.75071277.86527,-7.210994,-19.54726,-15.96495777.897603,-12.547711,-20.599698,-17.38895977.930925,-44.146764,-20.69113,-22.19668877.96398,-56.148428,-7.980159,-19.39776677.997583,-35.935706,6.137456,-13.28649878.030438,-13.619005,17.692585,-3.68316278.06432,-0.613087,25.012968,3.52169778.096989,6.061587,31.984833,11.86878178.130939,-3.224806,31.330893,12.56761378.164354,-14.818094,25.429275,8.83447178.197517,-17.917947,18.77181,4.91277878.231218,-19.407493,11.494973,3.26131878.265342,-39.367019,8.498971,-0.7625878.297525,-60.783319,-7.411067,-16.78365478.330824,-56.88931,-18.484645,-20.44751278.36428,-16.335323,-15.295006,-8.64128278.397751,-3.515412,-11.497068,-1.17484778.430861,7.566696,-6.044528,5.76604278.464189,13.192223,-3.438496,5.07573978.497777,9.453095,-4.514428,-0.65872878.530706,-0.12585,-12.763795,-7.14111178.564287,-12.79956,-22.497021,-15.92560178.597615,-15.182324,-23.18493,-13.14837878.63086,-24.049717,-21.115368,-11.34981978.664163,-48.128913,-21.603803,-17.64739378.697635,-49.660059,-5.075141,-17.2086478.73074,-32.30447,8.385243,-12.13873778.764268,-13.442276,20.396932,-3.38118278.797499,5.11719,39.281274,14.78846478.830906,5.094893,41.023267,18.2983478.864309,-9.386653,33.833073,11.2446278.897531,-22.502558,28.053264,6.61107678.931176,-26.478871,18.783033,2.69821278.964305,-33.672656,11.147651,1.12351978.997541,-58.456521,2.48946,-8.75186879.030926,-62.193255,-21.389664,-26.14591579.064178,-26.312168,-15.585612,-16.01598579.097499,-7.273695,-13.396037,-6.53236479.130558,6.052908,-10.579607,2.36001979.164287,9.312131,-9.858328,4.35386279.197528,8.630058,-9.524474,2.82106979.230851,4.772114,-10.057951,-2.09829379.264184,-6.142544,-17.888168,-10.63946479.302723,-13.860229,-21.226104,-10.8423879.330601,-21.696132,-20.576204,-12.24782679.363506,-53.053512,-18.450526,-20.02177779.397781,-62.401109,-4.818802,-18.56904479.430876,-44.455029,7.622512,-13.38705879.464701,-15.757851,19.850586,-4.2663279.497511,1.230514,29.517371,5.31681479.530104,8.977529,35.527031,12.82170779.564175,6.436293,36.568696,14.15128579.597754,-10.805867,28.956808,6.91395379.630853,-18.264071,22.502259,4.01477179.66444,-19.769479,16.180443,1.94760379.697585,-35.737729,11.290111,0.71708979.730816,-64.382531,-2.322907,-6.91784479.764246,-61.61683,-20.880129,-16.47598879.797098,-29.539368,-11.521609,-10.05899979.830735,-7.692994,-9.84486,-3.35978379.864193,3.47037,-9.536296,0.50354979.897576,12.341054,-9.659452,2.34460679.93085,13.724054,-9.3042,-3.68854979.964318,3.208045,-13.876839,-13.45963580.00275,-16.743549,-24.117505,-18.61273980.030837,-21.083644,-23.644184,-13.809580.064215,-37.974442,-19.344493,-12.25201680.097472,-52.060931,-15.536978,-13.59326680.130854,-41.248629,-1.417717,-12.67161580.163489,-18.291606,16.177151,-7.45221980.197549,0.443093,28.702714,2.10532780.230502,7.750158,35.360928,10.42906680.264165,1.803347,34.151813,11.80682980.29749,-12.704387,29.856312,6.31313780.330289,-22.739443,24.482634,2.65391880.364172,-28.111176,16.870746,1.22647480.397527,-35.049221,11.13568,0.23329380.430879,-55.120231,2.759566,-5.39986680.464159,-52.945919,-16.735319,-17.64634580.497497,-21.239871,-12.201437,-11.88613980.530885,-10.629438,-13.51635,-7.29299980.564176,-2.61935,-11.657934,-3.42547780.59665,6.003825,-10.394349,-0.86807980.631349,8.558828,-10.24291,-0.35375680.664257,4.645815,-11.863842,-4.12236480.697536,-5.719952,-19.229568,-9.95634480.730996,-7.654536,-17.766359,-12.28314280.76439,-25.760435,-20.153762,-15.88863980.797669,-67.758326,-28.223857,-23.38964280.830015,-51.988953,-0.901898,-14.00987280.864147,-32.955118,15.681982,-6.32510880.897478,-7.487235,29.618529,1.85287980.93084,10.662808,43.922599,11.7351580.964146,2.656761,39.290102,10.03864780.997477,-12.051195,34.023419,7.93945681.031003,-21.296885,28.585843,4.77121681.063403,-28.391457,19.02321,2.58134181.097693,-30.345944,10.354693,0.25259781.13047,-45.970762,8.0469,-4.73560181.164354,-54.031429,-14.648249,-16.83812481.197513,-32.532526,-15.513185,-12.12227681.230917,-12.186024,-11.548694,-6.06697481.263831,-2.736371,-9.347447,-1.42519981.297498,2.103381,-9.484071,0.04638981.329912,5.245135,-10.14639,-1.03313581.365022,1.882209,-13.903925,-6.33872681.397718,-6.544784,-21.04758,-10.88173681.430551,-4.715698,-17.545336,-9.01404281.464189,-9.931054,-13.745004,-10.16674281.497333,-44.454729,-24.621053,-26.76902881.530508,-67.16604,-20.943279,-31.06901881.564211,-42.292389,-0.823036,-20.31028981.597493,-13.527124,25.914567,-4.68666781.630826,3.775043,43.602663,7.09472281.664164,7.970582,52.214315,13.10438281.697581,-4.852173,46.982498,9.74564781.731539,-27.588922,36.280932,0.29449781.76425,-36.660577,27.770738,-0.77290681.797538,-37.670966,17.48099,-0.16430881.830707,-60.483584,15.743934,-7.68865581.864316,-58.105009,-9.612913,-19.70603181.897687,-37.136441,-11.20257,-12.41063881.930917,-11.594934,-11.804285,-4.90484781.964436,-7.249602,-10.777135,-3.78402181.997494,-1.878468,-8.284682,-3.53845782.030925,3.204454,-7.543351,-3.72610982.064168,3.208195,-11.45831,-5.42485682.097516,-0.803134,-23.052795,-11.38528482.130725,-4.009832,-24.856891,-12.95608682.164267,-10.071719,-20.128173,-10.48817582.19756,-32.493469,-22.503007,-14.87780182.230445,-75.081403,-27.167976,-25.41371282.264159,-51.648665,-0.094724,-15.40678982.29754,-27.540138,18.796651,-7.86508482.330613,-5.514343,35.095311,4.28712182.364226,7.345823,45.606382,15.45048582.397622,-1.071743,36.844188,10.86063682.43098,-14.029774,31.760518,7.39700182.464608,-23.968011,28.356291,3.08084982.497075,-25.028232,18.308366,-0.06674182.530102,-27.995352,12.114195,-1.20223182.564225,-49.169679,9.893793,-8.30922482.597655,-54.73101,-6.916647,-26.23540182.63068,-31.010358,-7.545297,-17.49445882.664173,-11.229057,-9.96218,-7.73579282.697699,-6.685748,-11.393664,-3.7467682.730803,-0.973577,-11.884792,-0.65723282.763597,1.337509,-12.242439,-2.31108682.797896,0.78383,-19.594397,-4.73859482.83062,-3.923788,-25.698782,-9.73322682.86417,-5.310978,-19.12781,-9.95529682.897524,-17.519897,-13.530266,-13.74096482.93172,-70.16683,-15.262683,-29.64711182.964289,-56.296126,0.836504,-24.49221182.997957,-33.860158,15.322989,-14.75015683.030459,-12.381607,23.307039,-5.13125783.064533,7.388172,39.556317,12.92600883.097503,14.984197,47.430679,17.85210483.13092,-1.39991,41.246385,11.32901983.164177,-26.131998,33.77172,3.07800683.198989,-29.814711,23.135997,-0.55697183.230636,-35.244954,14.344324,-0.66022583.264229,-54.585856,9.04427,-5.45463583.297816,-55.351879,-13.754132,-20.01878483.330878,-32.994773,-13.258215,-14.87585683.364172,-15.814267,-12.287482,-8.90255883.397565,-5.285239,-9.682497,-2.0912683.43044,1.380307,-7.423487,1.93054483.463381,5.580036,-6.767752,2.92342583.497883,5.687928,-10.515859,0.85850283.53082,1.804095,-19.126164,-5.09788683.564175,-1.942665,-18.437059,-8.10241783.597499,-3.933215,-13.865167,-8.84165483.630874,-30.92147,-21.721721,-24.87230483.664158,-75.878402,-15.901658,-37.79995883.69749,-42.695078,2.56907,-25.68007683.730421,-18.661822,18.919358,-10.13097783.764142,-5.111653,21.679672,-0.95876283.797478,0.938561,25.360289,5.96566683.830817,2.817328,28.521946,12.34748883.864155,-5.332975,23.837972,10.06513483.897508,-13.649831,18.757444,5.92466483.930953,-13.387357,13.786305,5.58587283.964179,-11.510984,8.009639,4.63668784.003158,-37.43019,2.566676,-4.89003284.030221,-58.752664,-10.456301,-14.88378784.064167,-49.254078,-27.087169,-20.61975184.097568,-16.183436,-13.65013,-8.87741884.130452,-1.938774,-8.652654,-1.84180584.164172,7.160116,-2.233421,4.61902984.197411,11.442298,-1.50032,4.86130184.2307,8.305632,-6.633223,2.06761784.26417,-0.023494,-18.472075,-5.79312784.297696,-3.631685,-22.877713,-18.23429284.330914,-7.491276,-22.916171,-20.84062484.364339,-25.575775,-23.964121,-22.97408384.397502,-53.051268,-18.021799,-23.53494584.430517,-41.568267,-1.950895,-12.88036784.463625,-23.307188,7.697035,-6.39244784.497707,-9.344304,19.100426,1.48445884.530976,3.283316,29.256244,12.0869684.56429,1.749027,30.818067,15.54909984.597665,-7.109836,25.812361,9.35178684.631142,-15.10466,20.973806,3.64799684.66419,-15.127405,15.198187,2.13061684.697368,-16.713621,11.598675,1.11798284.731697,-41.471747,7.333702,-4.67454684.764273,-65.58581,-14.81136,-25.10170684.797714,-37.03633,-13.416837,-18.07327784.830747,-10.51122,-12.621634,-9.15440784.864399,-1.6763,-11.815209,-2.68863584.897344,2.957394,-10.717278,0.38173984.930671,5.366046,-11.170696,1.55598784.964254,2.921629,-16.531206,-2.42451584.997549,-0.079161,-21.75165,-11.61528685.030463,0.191094,-17.818884,-14.11806485.064404,-8.124864,-13.304006,-16.28758785.097389,-44.727379,-20.211225,-28.41869285.131063,-77.300159,-13.350994,-28.08049985.163477,-47.343886,2.763157,-14.68655785.197109,-19.833676,16.071652,-3.44059185.23064,-3.047329,27.64429,7.88633385.264035,4.443348,31.733882,15.70293285.297509,-4.826135,29.982012,15.93158785.330913,-13.647586,25.601963,10.16240285.364174,-15.225122,19.913286,4.40803285.397548,-12.909697,15.084608,1.71131785.430682,-20.832393,6.92353,-0.99707185.464404,-51.015525,-0.577322,-8.39781385.497719,-63.109818,-22.269564,-23.74788785.530291,-28.011813,-17.650086,-15.07562985.564256,-7.580912,-10.389859,-4.8657985.597511,0.098914,-7.145451,1.2068785.630923,4.625015,-5.013039,5.24139485.664404,6.337678,-6.315381,3.72730785.69745,7.143505,-8.665973,2.07719485.73092,3.13921,-13.5789,-4.49213285.764383,-0.951579,-14.712446,-8.04779885.797097,-10.566438,-14.796395,-10.03715185.831015,-34.770586,-24.392698,-18.14600385.864185,-60.213329,-18.215288,-19.56087785.898394,-38.643645,-0.889178,-10.69483285.930742,-19.398814,10.716829,-4.5431685.964205,5.807792,30.092299,6.9488285.998845,11.457861,37.599137,13.91140786.03086,0.873316,33.210858,12.57689186.064444,-10.859439,27.457236,8.95672986.097672,-19.457773,18.834959,4.31136386.13136,-20.193717,13.043029,4.24013386.164819,-29.187258,6.798129,4.32542986.198179,-59.541133,-6.486124,-7.89980186.231092,-54.1902,-17.68615,-17.56553886.264345,-23.381561,-9.846656,-13.6459486.297503,-5.048953,-6.155563,-5.99888686.330822,3.364871,-3.158663,-1.1317586.364135,6.818182,-1.265231,1.80574186.397479,7.777692,-2.69058,1.78254786.430806,7.130486,-8.313115,-1.21255786.46328,4.82793,-13.084779,-9.97100986.497471,-3.54549,-13.015195,-13.74934486.530698,-17.369356,-19.263537,-15.65399986.564147,-40.22986,-25.483595,-17.56314486.597375,-50.709356,-15.026097,-14.65962286.630908,-27.471153,1.891786,-9.03529186.664158,-13.799923,13.150173,-3.62150986.698157,-1.161977,22.414119,4.43182686.730471,8.419361,32.242219,13.76251286.764276,2.919983,30.237901,11.45142786.797485,-9.056241,25.155129,6.87504686.830877,-17.469018,20.487017,4.27006186.864148,-23.642089,11.641922,2.40401486.897655,-45.767846,5.443561,-2.32904386.930655,-64.181561,-10.045681,-16.96397386.964335,-35.356588,-15.072038,-15.22706886.997886,-11.019407,-12.205328,-7.54574687.030379,-0.937663,-8.769526,-2.14947187.064262,5.038777,-5.067359,1.26927187.097627,7.327417,-3.220915,1.33750987.130867,8.856019,-5.39807,-0.59288587.164259,8.953886,-9.771235,-4.60795587.197605,2.748642,-15.736303,-8.55837987.231098,-2.63192,-16.526717,-9.66753387.264261,-9.594058,-16.14827,-12.87049187.298528,-47.748071,-31.402423,-22.99293887.330918,-63.557849,-19.6981,-20.03270187.36499,-38.076199,-0.81316,-10.05974787.397528,-18.111286,13.0131,-3.11960787.430353,4.408182,30.782003,8.72463387.464221,9.539588,37.079427,15.34004887.498228,0.770362,33.809729,13.54418387.530741,-13.481932,23.833782,5.3688987.564344,-20.376431,19.355866,2.14258887.597845,-24.044329,14.854756,0.69120187.631049,-33.825741,9.296269,-2.26424787.664172,-59.488608,-4.893773,-15.95253787.697602,-51.060867,-17.729547,-17.71398487.730923,-20.982784,-16.87299,-9.43947787.764304,-3.374149,-11.904695,-1.42579887.798174,5.192461,-6.487471,3.00632787.831346,8.069047,-4.815959,3.38597187.863807,9.511156,-7.245263,-0.18376287.89744,7.860894,-10.727903,-0.95726687.93099,4.72752,-14.787866,-3.11721287.964617,-6.315381,-16.59226,-7.16894587.99786,-18.451574,-21.925385,-10.48817588.03067,-54.837256,-39.257031,-15.41935988.064311,-63.74595,-24.483681,-11.51756988.098494,-30.429444,0.882145,-5.45987388.130974,-10.815145,17.861532,-0.49202688.164292,2.534054,32.314347,6.30026788.197534,7.527788,41.447804,14.21518288.230693,-5.54472,31.711735,10.79150188.264306,-20.346802,22.484302,7.86882588.297522,-24.892655,14.303771,6.79558588.331217,-27.336923,6.298172,5.12946188.365841,-45.797027,-5.680446,-1.0855188.397762,-59.307839,-24.63931,-17.06737788.430933,-31.13546,-23.560234,-12.93498788.464251,-10.329104,-17.221958,-4.8740288.497605,0.166104,-9.382912,-0.24451788.530302,5.345246,-3.859591,2.77692488.564541,5.580485,-3.798985,2.79308688.597138,8.73855,-5.108062,0.13318288.630498,8.767431,-8.431931,-3.54010388.663875,-1.571101,-19.088903,-7.99437588.697607,-4.520115,-17.967928,-7.99497488.731067,-9.776323,-17.556111,-8.36219888.764203,-39.229796,-36.00125,-15.31146688.797774,-42.003578,-21.475858,-11.43960588.830707,-21.906081,-1.086408,-6.17830888.864266,-1.577985,26.26129,0.22955288.897661,7.102952,39.503643,3.86153688.931194,0.202617,34.270031,3.71937588.964167,-15.176638,28.041891,5.741888.997617,-29.231253,17.884876,1.75471389.030702,-32.443189,11.947493,2.63326789.064247,-37.008197,-0.303775,2.08317989.096604,-49.62205,-20.118746,-7.17882189.130109,-35.831854,-26.382201,-10.9635989.163637,-14.930475,-15.388532,-8.27091589.197836,-3.287805,-9.486914,-4.96799689.230835,1.029095,-6.000233,-2.55006589.264217,1.387938,-6.199558,-2.66903289.297619,3.446726,-6.742762,-3.03730389.33101,5.681793,-10.377439,-6.05245989.36429,-0.970135,-17.072913,-9.64029889.398067,-0.934969,-14.117166,-9.07883889.430715,-8.171403,-11.572338,-12.84235889.465335,-38.938442,-18.560963,-21.12868689.497982,-54.302881,-17.851955,-19.95488789.530669,-31.746602,-2.486168,-9.1615989.56428,-9.322606,14.798939,-0.32876689.596531,4.008486,26.24034,4.69340189.630847,8.521418,32.666457,5.98676589.664285,-0.439801,27.605233,5.03309189.697934,-12.110604,23.726488,3.7298589.730625,-20.772985,18.422693,2.28474989.764585,-21.804773,10.79629,-0.70796189.796974,-31.484128,4.702979,-1.79272389.83083,-49.24899,-2.611868,-12.61041189.864292,-46.374948,-18.178625,-17.46572689.897596,-16.361062,-13.999247,-5.03967589.930887,-7.646904,-10.516457,-1.7056389.964229,-0.839497,-7.532727,-0.38622889.997727,4.330517,-6.972314,0.49920990.031687,5.625976,-8.565113,-0.26142690.064295,5.110905,-9.422119,-3.63497790.097635,-1.999828,-15.564363,-12.5312590.131118,-4.56007,-13.422374,-13.07819590.164411,-10.849862,-12.437274,-14.28656290.197743,-33.794765,-26.031887,-25.27768790.231431,-50.921101,-17.289147,-22.73031590.264176,-30.202286,0.863739,-9.12268390.297544,-13.353837,14.804326,-1.05662990.330671,2.950959,30.428247,6.06832190.364243,2.867458,35.689843,7.34357890.396684,-5.661591,33.408237,6.19192690.430745,-14.246009,29.946247,3.45241290.464196,-19.824398,22.767576,2.29971390.497721,-23.323499,16.033494,3.74227190.530837,-39.89062,7.92958,1.7644490.564408,-72.638183,-13.414293,-15.08745190.597529,-45.744801,-20.219755,-13.98069290.630992,-14.011967,-12.730574,-5.3141290.664254,-0.095921,-8.80559,0.03606490.69772,5.070951,-5.56552,2.51265590.731012,6.550021,-4.630851,2.43992890.764471,5.108511,-7.324873,0.47840990.797547,3.099105,-13.257168,-4.15902690.834356,-5.332826,-21.002088,-10.15970990.871983,-10.406171,-21.386671,-9.94601890.897516,-22.237241,-20.233073,-11.71883890.930781,-56.723506,-25.865035,-17.20774290.964367,-65.223524,-12.190363,-12.53424390.997554,-34.50482,8.242782,-6.55991.031195,-11.097671,23.938532,-0.64002391.064162,8.853625,41.858873,10.56883291.097664,12.717107,43.926939,14.68266791.131421,-7.632239,31.657714,9.43289391.164323,-19.55115,24.327454,5.1004391.197612,-25.837052,19.11524,2.75732191.231906,-28.047578,10.429216,0.45147391.264699,-39.093472,2.44322,-3.33329791.29844,-49.364664,-4.684572,-10.10987791.331031,-40.864496,-18.575329,-12.04251691.36445,-18.28128,-13.997452,-4.06445291.397825,-7.276987,-10.54878,-0.18256491.431432,-0.135277,-6.39559,-0.00299391.464403,4.06969,-4.720187,-0.42528591.497529,6.952112,-5.922718,-0.97028591.530957,7.120161,-8.400805,-1.81786391.564184,2.880028,-14.289854,-6.58623591.597863,-7.520606,-17.38043,-8.46679891.630741,-23.321404,-20.998647,-11.50754391.664471,-60.991023,-25.344128,-18.12804691.697535,-53.464432,-6.364614,-12.20921891.731709,-33.563716,7.330409,-8.7972191.764192,-11.976075,19.249769,-2.75627391.799382,10.382228,37.562624,9.66334391.831542,9.236711,39.49631,13.59281791.864393,-3.808263,33.068847,11.37914991.897596,-16.270079,23.903964,3.87320891.930997,-20.651475,19.97868,0.11836891.964176,-21.553523,15.829231,-0.87870391.997755,-26.997533,10.311147,-2.63775692.031146,-50.45212,4.7567,-4.17668492.064256,-54.423943,-13.303707,-12.47962392.099223,-34.538789,-12.708876,-9.75312992.131166,-9.992557,-8.163472,-4.36358892.164192,-1.225127,-7.603059,-0.44503892.197685,4.19509,-8.474879,2.1627992.230855,7.176128,-10.663856,2.30435292.264585,5.995594,-13.279016,-2.81987292.297742,1.400209,-13.473552,-8.1350492.331301,-5.60757,-14.064043,-10.10164792.364235,-20.286795,-16.897233,-14.51147592.398071,-54.230155,-25.508885,-22.10929692.431744,-68.873765,-16.284594,-17.68734792.464178,-43.596826,6.830153,-8.20641992.497508,-19.771574,19.66877,-1.26493292.530453,2.981935,39.557215,10.49640592.564213,11.562312,51.852029,22.56346392.598074,-5.353177,39.082847,16.65885192.630944,-23.506662,30.335169,12.37816592.664361,-32.087039,21.962497,8.67360492.697533,-37.369735,12.597691,4.52654992.730953,-56.236717,7.727861,-0.15532992.764647,-58.79636,-14.400141,-13.03809192.797771,-31.777278,-16.233865,-13.54253792.83096,-17.168835,-15.67869,-9.78814592.864298,-5.412136,-11.613939,-5.28434192.897558,6.945079,-6.629033,1.0100992.930842,13.052756,-8.324787,0.69464392.964931,14.904587,-11.765377,-2.15171692.996918,8.932487,-15.486399,-6.89075893.030542,-11.204665,-17.946679,-14.8279793.064654,-24.423225,-21.704512,-14.3042293.097588,-47.460757,-26.804344,-14.75180293.130694,-63.931507,-9.872693,-12.03174293.164596,-42.89126,2.027363,-9.20633393.196869,-23.277559,13.349049,-5.40749893.230676,2.835734,32.909776,7.93092793.264205,15.017717,41.755919,17.81888493.297485,2.45609,34.853339,14.98404893.330826,-12.355719,26.217893,9.00955393.364179,-21.796692,20.358025,3.51720893.397489,-23.533897,16.158745,2.42481493.430824,-24.939942,9.765549,2.63790693.464147,-55.382705,2.626084,-3.68046893.497486,-66.07619,-26.184224,-15.41861193.531113,-32.655682,-21.7307,-10.44986693.564158,-5.388942,-12.046856,-3.29349293.597506,5.33956,-8.128306,1.07608293.630639,7.996021,-6.662852,0.58525493.664169,8.806787,-7.270552,-3.57661693.697494,4.878061,-10.79599,-5.49608693.730994,-0.257835,-13.99805,-6.86576893.764162,-3.04254,-12.293617,-6.79154593.797452,-6.752788,-10.669392,-8.16676493.83386,-26.125564,-24.765159,-14.10205293.864801,-61.879154,-36.550439,-22.37521293.898458,-34.09435,-6.235921,-10.44926893.930864,-16.448902,9.946168,-4.17788193.967327,-1.314763,27.67781,4.50081193.997717,7.995123,35.150979,12.09204894.031646,-0.22192,29.223173,10.71952394.064169,-11.947792,22.583814,7.41525794.097581,-20.929511,16.937636,6.6595694.13059,-23.883314,7.575824,8.47338294.164191,-36.411571,-3.771451,5.34898794.19758,-58.866692,-18.461899,-5.37337994.230411,-50.795101,-31.099994,-12.01902294.264259,-10.958054,-16.313176,-4.55887294.297517,1.499422,-9.809694,0.78053894.330962,7.971929,-4.338897,4.50634894.364185,8.406492,-2.452648,3.33643994.397525,8.462458,-3.240069,0.88109894.430612,8.539524,-5.065713,-0.99497694.464083,5.262643,-11.785579,-6.4542594.497555,-0.443841,-13.519642,-10.23303494.530631,-4.680682,-12.59814,-10.67373294.566519,-36.611793,-32.581759,-15.73779994.597572,-74.434048,-37.46371,-17.02682394.630281,-44.767932,-9.218006,-7.68700994.664147,-23.440071,7.940204,-2.11460494.699888,0.220125,28.3316,8.05273694.731392,8.920216,35.660363,15.72762394.765256,1.460366,32.150637,16.72559294.797563,-12.70708,22.227514,10.540794.830605,-16.534199,16.914591,6.25058694.864201,-17.687048,14.02738,3.25009594.897524,-22.466195,8.180681,1.3620594.931273,-46.200763,-2.264996,-3.46213994.96426,-53.72092,-17.179908,-15.96480794.998314,-35.146789,-16.765098,-14.22670595.030663,-9.747143,-12.491146,-6.37553895.065201,-1.745884,-8.498672,-2.28115795.097199,4.939414,-4.684423,0.65708295.130664,9.303302,-5.149962,1.341195.164664,8.699343,-9.291181,1.02415695.197576,6.004573,-13.585634,-4.01117995.230645,0.155629,-16.909054,-8.93637795.265434,-12.892488,-20.795731,-15.04525295.297791,-37.94167,-30.751925,-16.82465695.330645,-58.77945,-26.55863,-14.82976695.364175,-40.658737,0.62446,-9.30674495.39739,-22.517373,15.617486,-4.21005595.430917,-0.881098,29.269263,5.34105695.464376,11.07687,37.791877,17.42472495.49741,1.331673,28.806567,15.47427895.530964,-11.101262,21.017502,9.89020295.564615,-22.56047,17.839534,8.31191795.597513,-30.318858,7.805526,6.13027395.631447,-34.698608,-0.189298,0.96474895.665624,-41.694865,-1.322245,-3.60699495.697545,-41.042272,-20.994457,-11.31974195.731223,-21.895756,-17.245003,-8.7131195.764184,-8.303388,-10.86333,-4.43766295.798193,3.115117,-5.215206,0.46239795.831568,6.872053,-3.054661,2.31796995.864188,8.278697,-2.909059,3.00034195.897747,7.287761,-5.026058,2.5481295.931567,2.794133,-14.343576,-3.23333595.964274,-4.22861,-18.724822,-8.98097195.997719,-12.142478,-19.487702,-13.72944196.031474,-43.488934,-28.023186,-20.16199396.064453,-52.362012,-15.222279,-21.53182496.098309,-35.990326,4.049488,-15.59040196.130636,-21.406274,12.863457,-8.66896696.169078,-0.387875,24.189034,5.36110896.198463,8.301143,29.709213,14.62221196.23094,3.649642,28.1848,14.37904196.264172,-13.036445,22.06171,12.64482996.297504,-19.603825,16.916387,8.53488596.332453,-20.002174,12.421113,6.54358796.364134,-24.42547,4.87402,3.85136196.397477,-41.883415,-1.317307,-0.9975296.430703,-50.450025,-18.255691,-13.64908396.463977,-34.526519,-16.473593,-14.05566396.497484,-9.817176,-10.307705,-7.0787196.530965,-3.061395,-9.777969,-2.61291596.564177,2.303304,-8.306231,0.21264396.599804,4.564858,-7.123154,0.76392796.631746,4.792914,-9.797124,-1.22602596.664185,1.990251,-14.064941,-6.67033496.698289,-3.862584,-13.368802,-9.19585896.731127,-9.972356,-15.119624,-9.82929796.765137,-30.165474,-24.359477,-16.9024796.797682,-61.288663,-22.876217,-21.96444296.831124,-36.803186,-0.260079,-9.93015696.864161,-22.088496,11.183566,-3.72670896.897906,-7.128242,19.880365,3.1809696.932528,6.955404,29.766825,13.50752196.964705,3.43655,28.442934,14.91057396.997674,-6.784362,22.22931,13.08971797.030771,-14.411963,15.832972,10.52932797.064557,-15.881456,9.429152,7.52404797.097172,-21.656926,2.73263,5.92077397.131193,-44.077629,-7.607997,2.46357297.164182,-51.617539,-31.505078,-11.83930197.197375,-24.092963,-19.975837,-10.71488497.230982,-8.513935,-10.890714,-7.93122697.264168,1.60537,-3.619115,-2.29432697.297552,6.241009,0.592436,2.05714297.331455,9.282202,0.945444,3.20430497.364552,9.034992,-1.316559,1.9112497.397518,7.008527,-12.069602,-4.1870197.431421,-0.779789,-18.683371,-13.75562997.463795,-3.550279,-18.539564,-17.67672397.497525,-25.887482,-24.971068,-17.49385997.53038,-53.889418,-28.753443,-18.28187997.564175,-45.189177,-10.925282,-9.61156697.597688,-20.517544,4.669309,-5.18213597.631038,-6.162147,15.212103,0.28671697.664332,4.762237,23.657502,8.22392797.69771,6.966478,30.002064,13.77089297.731007,-6.071763,24.967477,10.71907497.764165,-15.538924,20.024321,8.58621397.79752,-16.469852,14.55547,7.22700697.830862,-21.328908,5.981229,5.78040897.864906,-52.230177,-6.531615,-1.96675797.897586,-60.667046,-33.584367,-18.53043697.930571,-17.122296,-16.746393,-10.20415397.964267,-2.333682,-9.600942,-3.76277297.997537,3.902089,-4.965303,1.48550698.030767,6.547926,-1.923361,3.24156698.06477,5.576744,-1.711466,2.65960498.097276,4.909037,-4.981913,1.75546198.130809,3.744067,-12.006003,-4.40234698.164619,-5.085167,-18.53687,-12.40016398.198023,-9.240602,-21.320528,-13.80575998.230937,-23.86371,-25.897358,-12.33686498.264278,-55.328085,-30.799062,-13.76849898.299524,-46.908724,-6.06009,-8.60985798.330769,-30.198994,4.99164,-6.69158498.36471,-14.855654,17.10808,-0.81046698.397839,4.103808,30.490499,13.12248998.430481,7.095021,32.984897,17.15536798.464013,-2.890802,25.967092,12.43697598.497578,-14.177173,18.076419,7.34567398.530963,-15.119474,13.261208,3.78761398.564261,-17.525883,8.323141,2.79802498.597907,-36.468435,0.451323,-1.1024298.630645,-58.689515,-21.563249,-16.88825498.664262,-39.138215,-19.631209,-13.88866198.697516,-15.865295,-14.233887,-8.19250298.730877,-4.260335,-10.201459,-1.3116298.765015,2.844862,-5.751976,2.87434298.79807,6.001281,-2.628778,4.3879898.831782,9.133457,-2.866411,3.12559298.864392,10.285708,-7.273096,1.1440298.897279,9.459679,-15.475475,-4.84633698.931015,3.250095,-19.833078,-11.51891598.964177,-19.472737,-22.627809,-21.18525198.997542,-49.874348,-34.335574,-22.90434999.030895,-56.496797,-20.29308,-14.84218699.063918,-32.938807,4.663174,-7.26082599.097513,-16.317965,16.201692,-3.85824499.13008,3.967035,32.989386,6.34740599.16414,13.020134,41.961379,14.56789199.365064,-54.181371,-5.655606,-10.99711199.397479,-34.297714,-14.268605,-9.35163799.430818,-14.166099,-12.855676,-6.6094399.464143,-7.639123,-11.346377,-5.56821499.497483,-2.065971,-10.601754,-2.43244699.530842,1.555538,-10.243209,-0.93437199.564267,5.429196,-10.655925,0.09771799.597473,4.397108,-15.72074,-0.76228199.630496,-1.852131,-20.349645,-1.59175299.664167,-5.122577,-17.041189,