time_tick,acc_X_value,acc_Y_value,acc_Z_value0.018958,2.413741,-3.71758,-8.0962820.048492,1.720595,-3.589336,-8.1854690.081795,1.739001,-3.619115,-9.1376470.115276,2.257065,-3.900743,-8.227070.149079,2.751635,-4.476419,-7.7739510.182038,2.555602,-4.214095,-7.4881330.21544,1.498824,-3.666551,-8.5986330.24949,2.909358,-3.985141,-7.6841650.281703,2.46851,-5.010495,-8.2116570.315268,1.969301,-4.330068,-8.0793720.348606,2.708537,-4.809973,-9.0563910.382569,3.028324,-4.295351,-8.3897320.415489,2.004617,-3.88099,-7.4843920.448437,2.304501,-5.495637,-8.2261720.481995,1.343195,-4.030932,-6.9438820.515233,1.517978,-4.163366,-7.3723090.548409,2.266642,-4.758646,-6.9980520.581936,1.168262,-4.697142,-7.2823740.615227,0.183462,-4.403244,-8.2535570.648463,-2.224442,-0.721279,-8.0943370.681908,-2.772285,-1.268074,-7.8257280.715163,-4.098421,-3.804522,-8.0099380.748468,-2.324105,-3.907477,-10.988880.781815,-1.464256,-8.276751,-11.9271410.814484,-1.784642,-6.119798,-14.2186240.848492,-1.874278,-6.433599,-13.1524180.882877,2.251079,-7.103251,-6.4187850.915231,3.1853,-6.225895,-7.1656530.948344,1.725533,-6.129076,-12.0214160.981726,-1.926204,-9.054895,-16.7802121.020363,-7.360338,-12.157891,-21.382781.047835,-11.518467,-7.821089,-21.2029091.081766,-9.99555,-5.507758,-11.6954941.115232,-3.631834,-1.264333,2.0224241.148358,1.545213,4.317947,6.3306451.181899,0.983603,8.929195,6.3948421.214403,-5.841013,9.288487,6.2893431.248475,-14.719928,5.787441,3.3177341.281831,-25.216034,1.649365,-4.2278621.315085,-24.328202,-5.630466,-9.2633471.34829,-19.809733,-8.682583,-9.5145981.381878,-13.643546,-9.722452,-10.7008171.415756,-6.099297,-9.422567,-10.6426061.448547,1.067852,-6.953459,-7.7229231.482457,3.814249,-5.948457,-8.1284551.515155,4.61873,-5.346742,-7.7836781.548795,3.311449,-4.814762,-10.4164961.582733,-3.176172,-3.234532,-11.5647061.615234,-14.592432,-8.269718,-12.2635391.648768,-27.909906,-12.281197,-17.4269691.681798,-25.586101,-7.454912,-10.9028351.715074,-13.796331,-6.448863,-0.0914321.748622,-4.863096,0.722327,3.1646491.78184,1.485356,11.41656,4.7110591.815221,1.671362,12.842956,5.7015461.848618,-0.521356,13.489713,6.4153431.881832,-10.301869,9.710331,6.0361481.91496,-20.121888,2.963379,3.2622161.948487,-25.683518,-5.526314,-1.4527341.981872,-27.609573,-15.289618,-6.5081212.015147,-22.707569,-18.378249,-7.0707792.048763,-9.591514,-14.587793,-7.1758282.081836,0.779191,-11.897961,-5.5756962.115212,8.225125,-10.876498,-7.1134272.149419,8.62946,-7.503097,-6.95722.182253,3.313693,-5.764546,-7.1230042.215146,-13.971414,-13.051559,-9.5867262.249043,-30.122676,-19.66443,-13.017292.281808,-30.997788,-15.075928,-9.3416112.315064,-16.5336,-6.978748,0.0161612.348545,-7.530183,-0.395955,1.5202232.381766,-0.928983,7.972976,1.0090422.415146,3.334194,12.791629,1.9051042.448592,1.827739,14.938706,3.9822982.481676,-4.302085,14.001342,4.9712882.515136,-14.251845,7.715441,6.9962572.548733,-28.09277,-3.764418,5.0901052.582222,-33.023505,-15.667467,-2.1313642.615213,-27.809047,-19.130654,-4.5908962.648762,-9.280407,-15.036273,-5.5287082.681562,-0.547095,-11.754753,-5.0495522.715132,6.422825,-11.235192,-6.8089042.748486,9.04023,-8.866943,-6.3500982.781918,4.509191,-7.344925,-7.1988732.81522,-4.19105,-9.574754,-8.126512.849496,-19.910293,-17.641257,-11.5373222.881794,-35.527181,-19.168064,-13.3480012.915152,-21.568487,-10.364121,-5.0320432.947977,-9.138545,-1.560327,2.7330792.981886,-2.616956,8.070394,2.4903583.015203,0.44444,14.972076,2.4441183.048067,0.099961,16.51684,4.4009993.081816,-4.496172,15.474577,5.0715493.114861,-16.456085,6.222453,5.9731483.148335,-28.472115,-5.237802,4.1003663.181792,-30.281447,-13.741113,-1.4063443.215104,-26.073637,-20.739315,-3.1992173.248383,-12.757211,-17.370104,-1.8751763.28175,-1.714609,-14.868673,-3.9110683.315179,2.860275,-11.048887,-5.1287133.348329,9.292977,-9.089013,-7.4594023.381898,6.536853,-7.720977,-7.4837933.416869,-4.620376,-10.411258,-7.6784793.448463,-18.84708,-17.065282,-8.281543.481988,-33.124364,-21.33235,-8.977083.515088,-28.51162,-14.611586,-4.8271823.548377,-17.71129,-7.991682,1.1360893.581898,-5.463913,3.90613,2.6925263.615853,0.09218,10.12544,3.0857873.648458,2.249133,12.579435,3.4082683.681844,-2.80805,14.395502,3.7081523.716129,-9.47614,11.971585,3.9703273.74947,-21.246455,2.64883,4.0090843.781849,-30.8462,-15.049442,-0.3036263.815456,-28.043537,-21.573425,-2.4870663.848415,-18.724822,-19.145618,-3.8990973.881831,-2.553507,-13.967972,-4.3323133.915245,3.799434,-10.72895,-5.3325263.94842,8.313564,-7.699279,-6.1712753.9819,10.357088,-6.35384,-7.2585814.014467,0.323977,-7.867029,-9.1761054.0489,-10.677174,-13.048865,-10.4432824.081944,-24.485178,-22.114085,-11.4810564.115196,-29.410376,-21.618318,-6.722414.148271,-19.811828,-11.819399,-0.67044.181876,-9.448905,0.524499,1.877724.215189,-4.58072,12.574646,3.5254384.248745,1.918722,17.072165,4.8048854.281116,-1.060819,17.258022,6.0557514.315102,-7.161911,15.392573,5.6165494.348392,-19.185124,5.334023,5.0236634.381808,-30.371383,-8.639785,2.7419084.414599,-31.697369,-18.742929,-0.5250974.448501,-28.648394,-23.411489,-2.3056994.481805,-11.354308,-17.677022,-4.1166774.515134,0.940356,-13.828355,-5.3766714.548641,6.477594,-10.761273,-6.1295254.581838,10.1633,-7.73684,-5.9062574.615104,4.339945,-6.70131,-7.2195244.647702,-2.902325,-8.823098,-8.5585294.68188,-21.44144,-17.751993,-11.5796714.715721,-35.995414,-26.014229,-10.2656564.748214,-30.444109,-17.604894,-4.2280124.78114,-14.447877,-3.03865,2.7068914.815165,-6.798429,11.732007,5.5339464.848695,3.766513,19.042065,6.5479264.881771,4.086001,20.554357,6.4352454.915132,-7.974772,19.37517,5.9255614.948513,-16.336521,13.683201,4.7656794.981779,-36.109292,-2.860575,1.1290565.015146,-33.823646,-20.251629,-2.7821625.048266,-28.333994,-22.857661,-6.0967535.081778,-16.359117,-18.806976,-7.4805015.115157,-1.346787,-12.745988,-4.8832985.148305,6.112166,-10.166742,-6.0696685.181803,9.993904,-8.194597,-6.6580645.215224,6.12713,-8.858862,-8.700695.248481,-5.992302,-10.941593,-10.3193785.282569,-24.391651,-19.669368,-11.1519915.315498,-36.948639,-25.90499,-9.7330775.348366,-22.745728,-11.21963,-0.8767585.381875,-11.239981,-0.932126,2.6778615.417831,-6.08972,11.295798,3.503595.448474,2.022724,17.148034,4.4981175.4819,0.623113,16.580289,4.9175675.515234,-7.935565,15.908542,4.5403175.548587,-11.350866,12.544119,4.0833075.582141,-28.593026,-0.755847,2.5556025.615146,-35.787111,-16.503522,0.3779985.648492,-35.66994,-23.98103,-2.3182695.681893,-12.903861,-18.514574,-4.2503095.715232,-1.058275,-14.177622,-5.3998665.748395,5.900571,-12.271619,-8.6314055.781811,10.821729,-9.468508,-8.3762645.815217,4.96231,-8.942662,-8.4729335.848657,-6.291139,-11.688162,-9.0417265.881979,-22.742436,-19.426348,-10.3326965.915272,-39.679623,-23.519981,-7.9822545.948289,-26.900415,-12.030545,-1.0361285.981815,-14.26621,-1.272115,3.273296.017388,-3.870216,11.266617,3.1637516.048345,0.588396,16.306891,2.5936126.081576,1.099277,16.89828,3.7730976.115375,-4.672751,15.917071,3.8964036.148487,-12.592304,11.893322,3.9507236.181994,-27.580991,-0.002394,2.602596.215151,-35.41435,-14.794899,0.7845786.248871,-28.464782,-22.904499,-3.285716.281906,-18.395757,-19.095787,-4.4535246.315259,-5.043117,-14.587793,-4.1060536.348367,4.248214,-11.829574,-3.2972336.381805,8.820853,-11.335304,-4.6118466.415156,8.636493,-10.026975,-6.4517066.44856,3.176471,-9.234167,-8.9288956.481938,-9.633265,-11.564557,-9.9693636.515151,-23.330084,-19.571352,-12.1861736.548722,-38.037591,-22.165712,-11.1657586.581838,-24.560448,-10.43161,-3.361286.615146,-13.288294,0.818397,1.3530726.648621,-2.687438,12.900868,4.3869336.682167,4.632197,17.980348,5.5765946.71523,-1.453931,18.222321,5.1577436.748568,-9.242547,15.208662,4.5274476.781834,-21.326514,5.952048,3.4950616.815422,-33.704231,-13.409953,-0.2668136.848614,-31.954904,-20.972309,-4.2509076.881813,-24.377734,-19.582575,-6.8181826.914628,-5.668176,-14.192137,-5.3651496.948585,1.993843,-11.009082,-6.5823446.981823,8.070394,-8.295906,-7.1620617.014405,11.15663,-7.491874,-8.88497.04863,0.145303,-8.338853,-12.5794357.081976,-9.749537,-12.487405,-12.3410547.115253,-22.015919,-20.934599,-11.2304047.151572,-29.395711,-18.554977,-5.9978397.181167,-20.555703,-11.207359,-0.4930747.215122,-11.753855,-1.524413,2.6913287.248521,-2.08288,12.140083,4.3727177.281807,2.336375,14.837397,5.138147.315106,0.172239,15.993539,5.8974297.34857,-7.525544,13.227539,3.8869767.381843,-18.342335,6.002478,2.803867.415182,-31.193521,-8.198338,0.1189667.448413,-34.463369,-19.424852,-3.4420877.481895,-22.985306,-19.146366,-6.1212947.515156,-5.475435,-15.338851,-4.090347.548349,3.505236,-12.985416,-3.1671937.581897,9.594507,-9.196008,-2.8759887.615162,11.675891,-9.345801,-5.4392227.648608,3.471417,-8.293511,-8.5434157.681927,-6.379877,-11.427035,-10.9710737.715145,-29.014121,-24.306504,-10.7085997.748393,-39.949729,-25.467883,-6.8069587.781795,-25.540609,-12.287332,-1.4151737.815162,-10.245753,1.983667,2.7636067.848452,-3.617169,11.220527,3.8102097.881761,2.503526,16.349539,4.2510577.915081,0.249754,17.624647,5.1857277.948352,-6.854545,16.00581,4.8541187.981763,-14.394454,11.137625,5.7362638.015119,-23.62488,-1.173799,4.4743248.048454,-41.871144,-20.635912,-1.1006248.081795,-34.914543,-23.324547,-4.2105048.115082,-11.304327,-16.857128,-4.2254688.14844,2.321261,-12.625974,-3.6301888.181361,7.534971,-12.378465,-5.4669068.215158,10.143248,-10.038049,-6.3492018.248565,4.662575,-8.414423,-8.2537068.281769,-3.368612,-8.864848,-8.0617148.315152,-18.458308,-17.710243,-6.7586248.348322,-45.461527,-27.575454,-4.4671418.381841,-31.960142,-13.064129,-2.0477148.415133,-18.273349,-2.435289,0.5970758.448467,-6.798728,5.864657,3.6388688.481889,2.642246,16.014639,3.5314248.515099,3.798387,17.575564,4.0644528.548618,-2.156355,16.46671,3.9161568.581954,-11.025692,13.198358,4.8544178.615078,-18.531184,4.501709,4.5967328.648898,-35.693434,-11.117124,0.5613118.681845,-43.67928,-22.315355,-2.4550428.715349,-14.791457,-17.385218,-3.8021288.748623,-2.810295,-15.042558,-3.2701478.781887,0.94709,-13.162594,-1.5332428.815144,7.295094,-11.064749,-3.0925218.848414,8.230512,-8.19759,-5.2632428.881439,4.416712,-7.487086,-8.0817678.915065,-4.841997,-8.825193,-9.6168048.947968,-30.256607,-23.665882,-9.2189038.981964,-46.99851,-26.932438,-4.2724569.015111,-31.270887,-15.013677,-0.3280179.048434,-14.000893,0.571037,1.1301049.081776,-5.49848,10.728501,3.2415669.115103,0.118368,17.847914,4.7894729.148425,0.6288,21.218322,5.4715459.181804,-5.369039,19.738952,5.1315569.214797,-11.431225,15.004399,5.3923849.248498,-29.07338,0.648253,3.562559.281776,-31.738371,-17.98798,0.9939289.315104,-29.344683,-22.932183,-1.9464069.348485,-20.90931,-19.940671,-4.6024189.381961,0.216683,-14.443837,-3.7163839.414425,6.161848,-13.819526,-5.9182299.448359,8.259842,-11.630399,-6.8207269.481705,2.143785,-11.330814,-7.8821439.515052,-8.134441,-12.882761,-8.0955349.548236,-20.064875,-17.620457,-8.6976979.581742,-40.904301,-24.356036,-8.8386619.614948,-32.089882,-11.536424,-3.7611269.64845,-18.777496,-1.270618,0.0516279.681815,-6.444374,9.964425,2.5352519.715158,3.56225,18.95617,3.3325489.748575,1.234105,19.856871,3.2622169.781713,-4.716446,19.561326,2.8518959.814531,-9.470752,16.395629,2.1307669.848387,-30.915934,1.95284,4.6081059.881932,-46.836746,-15.853174,3.5634479.91506,-37.899321,-18.537918,-3.0094699.9484,-11.138523,-15.95104,-4.8759669.981784,-1.073688,-16.20259,-5.11195310.014378,2.557697,-15.4861,-7.40283710.048414,7.123304,-13.481183,-7.02364110.081568,3.478001,-12.311425,-8.21240510.115104,-4.948992,-11.289513,-9.91309710.148433,-24.329549,-18.233095,-9.65945210.181972,-41.073248,-19.603974,-7.79849310.215524,-31.361421,-9.032598,-4.01776310.248591,-17.575863,0.60755,0.04968110.281887,-3.513766,13.794685,5.46121910.315098,3.747808,18.684269,6.49031410.348463,1.141626,19.177641,6.12338910.381574,-7.047135,16.873739,4.33410910.415146,-14.061199,11.882847,3.12963310.448494,-28.256479,1.855573,1.33167310.48179,-35.631632,-10.106885,-0.26337210.515102,-34.222444,-19.217447,-3.57586810.548562,-20.729289,-17.473957,-6.26450310.581307,-3.253088,-15.477869,-5.52272310.615146,5.652613,-14.99961,-7.00269110.648337,8.387338,-13.220805,-7.46404110.681971,4.434968,-12.29676,-8.87098410.715282,-10.811553,-12.348536,-10.45375710.748156,-22.35516,-14.272645,-10.85285510.78178,-34.579492,-14.837397,-9.2076810.815057,-34.652967,-8.617189,-4.46235310.848467,-16.691922,-1.622728,2.44546510.882082,-8.684678,6.813243,3.7886610.915143,1.124267,17.119003,5.16806910.948408,3.761724,19.108806,4.18102410.981706,-4.475671,18.832266,3.26685511.014689,-10.101946,15.616439,2.89424411.048408,-32.397698,0.064047,4.09931911.08172,-42.732788,-14.564598,0.37934511.115094,-34.071005,-16.934194,-3.67672711.148183,-14.795797,-16.261849,-4.21409511.181721,0.417953,-17.031163,-3.77788611.215035,2.927615,-14.904886,-4.05622211.248287,5.302448,-14.099358,-4.22561811.28176,1.118282,-12.072594,-6.96887211.31486,-10.90074,-13.644893,-8.36668711.34845,-28.895754,-19.811529,-8.58396811.381782,-43.941155,-17.781473,-4.54450711.415148,-27.965573,-5.940675,-1.98561211.448223,-12.913887,3.765017,0.48843511.481812,-2.857582,13.865018,2.93150511.516124,4.295501,20.718665,3.54848311.547782,2.53121,20.786303,3.8096111.581804,-6.160351,19.018721,3.84986411.615227,-17.051514,11.701929,4.04365211.65024,-34.639499,-2.162041,3.76621411.681788,-38.334183,-16.210521,0.58136311.715298,-35.638815,-20.595059,-5.3898411.748308,-10.908672,-16.966068,-5.96087711.781818,-1.024007,-14.703317,-3.68151611.81523,4.321239,-12.816769,-4.4592111.848543,8.923957,-11.207359,-5.60966511.881753,3.815297,-10.714585,-7.78128411.915053,-8.681087,-12.566566,-9.90247211.948493,-27.219304,-20.17157,-10.29827811.981827,-37.365245,-18.130141,-8.61329812.015025,-28.951421,-8.181728,-3.72760612.047758,-17.440437,-2.199751,1.15404612.081748,-6.308498,8.364143,3.68211412.115083,0.330711,15.622424,4.53178712.148267,2.812988,16.698357,3.94713212.181802,-3.592778,16.867603,3.19996512.215168,-8.667469,15.340796,2.80685312.248621,-18.445887,7.328314,4.33216312.2821,-33.739097,-11.099766,2.00895712.315207,-41.18114,-20.399327,-2.07928912.348489,-29.862597,-19.625523,-6.05470312.381941,-7.110584,-16.641493,-3.11840912.41519,6.245797,-15.301291,-4.01596812.448329,8.0258,-12.404951,-6.28814612.481913,8.52471,-10.73763,-8.19818912.515209,-6.548675,-13.401573,-10.43849312.548439,-21.564746,-17.95042,-10.20609812.582042,-37.763744,-21.620413,-8.62018212.615173,-35.776336,-9.045916,-2.64673512.648398,-19.599036,0.529137,0.67429112.681699,-7.365725,7.881844,2.93644412.714553,-0.274146,17.435947,4.13268912.748368,4.642223,19.8865,3.76950612.781167,-1.863055,19.057179,3.33868412.815084,-8.859611,16.553054,2.99734812.848441,-28.427671,2.953353,2.08617212.881746,-38.069315,-10.855249,-1.2867812.914607,-34.448255,-15.508696,-5.64842312.948182,-20.724052,-16.028256,-6.73812312.981729,-6.973212,-15.058719,-3.30591213.01434,-0.023644,-16.035439,-5.28942913.048491,3.758881,-15.345585,-7.48618813.081796,4.667663,-13.926371,-8.79765813.115135,-3.978856,-12.71546,-10.73269113.148488,-15.765483,-13.802168,-11.84334113.181838,-37.863407,-18.20586,-10.48383513.215449,-33.066003,-11.283078,-4.94510113.248625,-20.333633,-3.211188,-0.5237513.281733,-5.805099,8.686923,3.20220913.315079,-1.03927,17.047324,5.36305413.349122,2.875838,18.887185,5.0459613.381784,-0.012271,19.020067,4.33740113.415096,-10.269098,15.341096,3.06962613.448321,-23.135249,6.182049,2.33697413.482048,-31.839231,-5.205928,1.35741113.515124,-32.499754,-14.87421,-5.27371713.548739,-28.652584,-17.569129,-6.5672313.581786,-13.343662,-17.129478,-5.77382313.615209,-1.645025,-15.488494,-3.80227813.648624,5.588565,-13.937744,-4.0696913.68151,7.402537,-12.457326,-4.80503513.715134,0.341186,-11.333508,-7.01331613.74873,-19.654703,-16.914142,-9.13809613.781795,-30.83378,-17.811551,-10.82921113.815205,-38.098795,-14.232241,-9.24658713.84848,-24.551469,-4.030633,-0.58450513.881803,-14.33325,2.818375,2.39952513.915135,-5.770382,11.362988,3.26236613.94909,2.291034,17.852254,4.46369913.981471,3.075911,18.723625,4.54136414.01536,-2.956945,17.987232,3.4700714.048482,-10.654727,15.014724,3.44253614.082618,-31.046422,0.205011,4.11203914.115239,-39.151234,-12.682389,0.6328414.14842,-39.369563,-19.531547,-4.21693814.181802,-16.067911,-16.957239,-4.0529314.215149,-4.499015,-15.929192,-3.49865214.248437,1.199388,-15.243079,-7.15068814.281723,6.174418,-13.114409,-7.77155714.315121,5.689126,-11.94031,-9.10592314.348483,-2.29253,-10.249794,-9.72843814.381503,-12.291372,-13.807854,-10.72101914.415147,-38.772488,-23.954244,-9.88601214.44926,-42.125238,-16.639847,-5.42261114.481812,-29.447487,-6.062185,1.31386514.514977,-12.072894,10.54908,4.05816714.548258,-3.744815,20.354883,5.5364914.582707,1.590555,21.916407,6.18534214.615004,-0.259032,20.981138,5.75317314.648234,-7.947238,16.506964,3.91376214.681779,-18.498113,9.187329,4.023614.715078,-32.336344,-2.696267,2.02541714.748466,-43.76293,-19.697501,-3.3570914.7818,-31.667291,-19.332672,-5.45807714.814846,-9.436335,-16.871494,-4.73934214.848438,1.119928,-14.498606,-4.31944414.881207,6.740218,-15.129351,-8.46275814.915155,6.34965,-12.905956,-9.41598314.948467,-0.501454,-12.895331,-10.33464114.981803,-15.127854,-14.889024,-11.77345815.015203,-26.415721,-16.367646,-11.881815.048774,-43.38164,-16.574004,-7.93212415.081836,-29.706819,-5.73761,0.38862315.115132,-17.905078,2.638205,3.15626915.148373,-8.244129,12.979431,4.01013215.181875,-0.237932,19.425151,3.87515415.21514,2.503975,20.454096,2.81059415.248523,-2.109367,18.780938,2.63865415.281887,-9.619498,16.255115,3.49506115.315214,-27.579943,3.653981,5.26009915.348494,-41.430745,-9.848601,0.76751915.382707,-45.628678,-19.310674,-2.31512615.415122,-19.176295,-17.320872,-3.67762515.44848,-3.618516,-14.736538,-2.72514815.481893,4.468189,-13.903625,-6.45484915.51589,9.084225,-11.968293,-7.59991615.548482,3.974217,-13.123387,-9.25122615.582265,-9.284148,-15.252806,-10.18095815.615271,-21.12719,-18.203915,-10.6996215.649544,-47.319644,-21.847272,-9.93614215.681897,-37.866549,-11.649853,-5.81871615.715059,-27.75323,-1.65969,0.19992315.748097,-8.067401,13.447963,2.40730615.781794,-1.662533,21.302871,2.71721715.81545,0.172239,23.129412,3.43221115.848361,-1.547907,22.596983,3.37519715.881824,-9.350589,18.871622,3.10374415.915156,-22.522012,9.472249,4.71390215.948522,-36.012174,-5.157893,2.80460815.981735,-45.415736,-19.399113,-2.01973116.014864,-30.138538,-19.473037,-4.41386816.048487,-11.443795,-17.741817,-3.90403516.081745,2.60274,-16.897831,-8.21405116.11514,6.468616,-14.796994,-8.55179516.148203,6.756678,-13.916046,-8.87517416.181822,-2.685343,-12.592005,-10.50867616.215251,-18.305822,-15.180229,-11.40743116.250691,-38.768746,-20.835835,-10.61941216.282103,-43.808871,-13.848557,-6.90841616.31501,-26.581675,-2.180597,0.7039216.348557,-12.757061,7.805975,2.15770216.381798,-3.975564,19.323992,3.31638716.415687,1.552695,22.246968,4.7276716.448372,-1.072192,20.998946,4.4467916.48177,-6.761467,18.093179,3.14414816.515187,-16.553353,12.106414,3.21238516.548018,-31.291388,-3.940997,1.23874416.581784,-36.853317,-13.975903,-3.0135116.615725,-34.296218,-17.603248,-7.62056716.6477,-11.049934,-17.124391,-4.01566816.681812,-0.663068,-17.308601,-5.28239616.715229,3.087882,-15.441207,-7.84293616.748551,5.193059,-15.416216,-9.5303116.781899,-4.416113,-13.645491,-11.40114616.815151,-13.279465,-12.029647,-10.9722716.84883,-23.23536,-13.336479,-9.96981216.881892,-38.745103,-14.41316,-6.77104416.915116,-28.611582,-8.656396,-0.86598416.94843,-16.415532,1.242336,1.45931816.98194,-5.200691,13.182047,1.84075817.01526,-0.500855,16.742951,2.45863417.048613,2.102932,17.92094,3.9857417.081946,-2.182093,16.6596,3.83684517.114882,-11.964103,12.923165,4.58401217.149083,-27.09106,1.642481,4.46145517.18191,-33.506702,-12.475583,1.37072917.215596,-33.433676,-17.33434,-6.51829717.248435,-17.83729,-15.642925,-5.75526817.282228,-5.18034,-14.670396,-2.71931217.315355,0.383385,-12.557587,-2.63416517.348615,5.614753,-12.505212,-4.28771917.381964,7.612935,-12.616098,-8.21090817.415376,-0.076318,-11.069987,-10.74975117.448896,-17.319525,-16.042921,-9.59809917.481931,-30.731573,-20.442573,-8.14132517.515132,-39.065788,-15.534285,-5.26069817.548901,-24.840879,-4.496022,1.58112717.581989,-14.229697,5.391785,3.66670117.615298,-5.608618,15.159878,5.27207117.648702,2.509512,19.02321,5.47977517.681958,1.255953,19.809584,5.5613317.715258,-5.757662,17.666397,4.56381117.74842,-15.853323,11.411921,4.2872717.78202,-32.01536,-5.587368,3.14893717.816013,-37.702092,-15.253704,0.09696917.848664,-31.15641,-16.626379,-4.23205217.881926,-10.593523,-14.778588,-3.86961717.914888,-1.193851,-16.71796,-5.84011517.948585,2.778271,-15.804839,-9.31287917.981927,5.478877,-15.061413,-10.29049718.015286,-3.5624,-14.092774,-12.23495718.048724,-16.402363,-13.07206,-12.84355518.081716,-27.713724,-14.793552,-10.351718.115344,-35.227596,-9.30001,-3.99591618.148669,-25.412365,-5.236306,0.23763318.18196,-15.406789,2.091111,2.25018118.215266,-3.745413,13.690833,4.44723918.248664,2.537495,17.451959,5.09609118.290509,-0.996323,19.690468,2.89229918.315245,-6.477145,17.876496,1.38359918.348626,-14.32083,11.093481,2.23536618.381187,-29.066945,-2.035443,0.83800118.415259,-40.316653,-14.555769,-2.47449618.448653,-28.430963,-18.282328,-6.18040318.481958,-8.797509,-18.365978,-2.72290318.515246,-0.661272,-16.63012,-3.32222318.548694,5.157145,-13.476545,-7.77799118.58201,7.621315,-11.914272,-9.86610918.615253,0.493971,-10.924384,-12.68029418.64862,-13.165287,-11.258537,-13.61032518.681907,-35.182853,-16.555298,-11.7055218.715277,-40.437415,-10.235428,-6.67123218.748445,-25.8589,-3.006028,-0.73160418.781922,-11.468635,6.129076,3.84941518.815222,-3.695433,13.877887,6.02492418.848545,2.335029,16.371836,6.24953818.881932,1.088652,17.155067,5.67805218.915206,-4.709862,16.610816,4.53567818.948536,-13.46996,13.314481,3.43969318.981874,-27.798721,1.678395,1.80843519.014345,-37.147215,-13.488067,-5.13604519.048301,-31.226293,-14.695985,-9.07075719.081886,-17.347658,-16.582234,-7.58106119.115221,-3.069326,-17.772195,-4.71270519.148155,2.374235,-15.75007,-5.79791619.181948,6.451706,-14.603655,-8.03163619.215328,1.974688,-12.483364,-12.18033719.248187,-12.860315,-10.642307,-13.79558319.282368,-25.156775,-13.152119,-13.01908619.315268,-38.308145,-12.875578,-8.89223319.347734,-28.501145,-5.25561,-0.56699719.381925,-15.771918,2.207233,2.50651919.415318,-6.94867,10.369358,4.40159819.448763,3.153276,17.890413,5.49907919.482331,3.202958,19.278052,5.77576919.515346,-5.335968,17.827712,3.76905719.548668,-21.136767,7.147995,1.63305319.58193,-28.202308,-5.689275,-0.22461419.615665,-34.292178,-14.423186,-2.21785819.648312,-31.025921,-16.54198,-3.13696519.682111,-8.836117,-15.035375,-1.84928819.715326,-1.089401,-15.255051,-3.07650919.748389,2.622792,-14.704365,-5.03189419.781921,6.882229,-15.642327,-10.03251219.815083,-1.036726,-12.435628,-13.50961619.848668,-13.283355,-14.944691,-13.872219.882289,-23.607671,-17.209986,-10.76052519.915271,-40.072286,-15.656992,-6.48163519.948987,-32.482994,-8.048247,-0.12390419.981928,-17.8328,1.126811,2.47988320.014591,-4.760591,14.036957,3.39584720.04873,1.78524,19.112547,4.56545720.081931,2.109666,21.048328,6.24355320.115306,-7.168196,17.697224,4.81580920.148379,-19.647371,8.624671,4.22142820.181926,-31.932308,-4.03602,2.86446520.215669,-29.920359,-13.986677,-0.17298720.24862,-30.681443,-18.040505,-6.85289920.281973,-12.720698,-15.867839,-7.36901720.314983,-3.961947,-14.082,-4.38004920.348638,4.651501,-13.919488,-6.64878620.381925,7.544997,-10.648143,-7.66650720.415391,5.428448,-10.025778,-9.27561820.448695,-11.164561,-12.206525,-11.39695620.48223,-21.147092,-14.21593,-11.27245420.515275,-35.527779,-16.959634,-9.23641220.548833,-36.945048,-12.791629,-0.9345220.581931,-19.568359,-2.451002,1.69261120.615262,-7.953223,8.176341,3.08593720.648651,-1.260293,14.856103,5.65201420.681948,2.527619,17.740171,6.02941420.715327,-2.031553,17.920491,4.88883520.748193,-8.21031,14.277134,4.0110320.781998,-23.793378,2.162041,1.40484820.815104,-36.935171,-12.548459,-2.55754820.848978,-36.963454,-18.417455,-4.91996120.881975,-18.221722,-15.589503,-5.59155820.915341,-2.696117,-14.524793,-3.41290720.948663,2.363161,-14.361383,-3.47366220.981961,5.23481,-12.587067,-4.33066721.015327,5.248427,-9.943475,-8.57828221.048659,-2.15845,-8.827737,-11.42957921.081943,-16.891845,-13.440032,-13.06053721.115372,-34.229328,-19.167915,-10.91450821.148588,-32.814454,-13.343662,-6.32226521.1819,-23.828694,-7.287462,-0.31948821.215239,-13.187285,2.315874,2.56308421.248694,-3.698126,13.701907,5.58452521.281997,1.864252,16.342357,6.53625421.31515,1.679443,17.12903,6.99266521.348734,-7.520456,15.143268,5.63420721.381933,-17.173922,8.542517,3.49461221.415265,-26.761396,-2.53974,0.3477721.448462,-33.042509,-14.759733,-3.55626521.48202,-32.054866,-18.875512,-7.68326721.515323,-11.952132,-15.146111,-6.43300121.547871,-2.49784,-12.419616,-3.34990721.581927,4.71495,-11.925196,-3.26745421.615263,7.750756,-11.150794,-3.38716821.648692,7.214586,-11.004293,-6.14134721.681992,-7.751056,-11.203767,-10.561521.715292,-20.620349,-15.478617,-11.36807521.747988,-31.514356,-19.395522,-9.28788921.781965,-33.476923,-13.758771,-5.25471221.815218,-21.003435,-5.118238,0.89980321.848179,-10.294537,2.614113,3.26715421.881887,-1.804544,10.6453,5.04027421.915305,3.002735,16.210671,7.00822821.947606,0.784279,17.639013,6.75069321.981883,-6.145686,17.016648,5.29032722.014316,-13.742161,12.231665,3.99756222.048703,-33.77561,-3.935909,1.1607822.081979,-37.036629,-14.269203,-1.61629322.11524,-32.39276,-17.380729,-4.99792522.14864,-8.908394,-15.215844,-5.36425122.181976,0.624011,-14.856552,-5.00256422.215262,3.930671,-13.920236,-6.64624222.248799,6.149278,-11.889731,-7.03995222.281942,1.851532,-11.86474,-9.72185322.31524,-11.784532,-12.604575,-12.0827722.349226,-23.365549,-14.871067,-10.72341422.381918,-34.019079,-13.34426,-8.72912222.415401,-30.367642,-7.6276,-3.13038122.448659,-19.990801,-2.363161,1.66747122.481947,-6.045425,7.567294,5.83667322.515259,0.210548,12.412583,7.80492722.548882,2.465368,14.447278,7.48050122.581948,-2.265295,15.189358,5.95623822.615249,-7.876008,13.930112,4.40758322.648728,-16.54647,8.857216,3.25174122.681338,-28.79684,-1.145217,-0.87256822.715246,-38.671778,-17.041788,-5.50551422.748229,-27.801415,-18.670502,-4.4675922.781906,-8.823846,-16.664987,-4.01836222.815367,1.300397,-15.260288,-6.37119822.848307,4.845588,-13.575907,-6.7096922.881992,6.340372,-13.148527,-7.19348622.915329,-3.11796,-10.844924,-9.40431122.949241,-17.188887,-14.240621,-9.83169122.982218,-29.060211,-18.149445,-9.40565823.015515,-36.390172,-15.288721,-8.92814723.048591,-23.717808,-5.965666,-1.59564323.082042,-14.704215,0.084399,1.71670423.115278,-5.427101,8.601926,3.7968923.14875,1.77267,15.517824,6.0603923.181939,2.646884,16.771682,6.43225223.215258,-4.07388,17.146238,5.3521323.24873,-13.075651,12.847595,3.46573123.282574,-27.582188,2.365705,0.75988723.315242,-32.370164,-10.594421,-2.33772223.349429,-34.639649,-18.333356,-4.93223223.38194,-18.789318,-17.854199,-6.38107523.415364,-3.967184,-17.732988,-5.32309923.44869,2.228034,-16.149317,-5.81931523.482036,6.904376,-12.966412,-4.77585523.515258,6.291438,-10.629139,-5.97853523.548741,0.323378,-8.138781,-8.78149723.581689,-17.821128,-13.760268,-11.2655723.615292,-33.813021,-19.934236,-8.48954423.648987,-37.755963,-13.661653,-5.75736323.681921,-24.973911,-5.33956,-1.49448423.715264,-10.296632,3.775043,3.56374723.748787,-3.098058,10.014256,6.1567623.781611,1.401107,13.822968,7.24690923.81524,2.229381,15.671208,7.11148223.848397,-5.372331,15.186514,5.68403823.882029,-12.740002,11.740088,4.67933523.920485,-27.846607,-3.058403,1.3828523.947621,-35.643304,-14.785471,-1.8819123.982032,-33.907895,-19.657696,-4.6395324.01526,-15.478318,-16.752977,-5.99873724.048261,-2.035144,-13.515302,-5.0669124.082864,5.51943,-12.688375,-5.7795124.115287,8.960171,-11.548096,-6.0436324.148325,5.862412,-10.574668,-9.53420124.182065,-6.077,-10.179312,-12.17390324.215284,-18.121312,-15.212852,-11.55123824.248315,-32.035712,-20.593563,-8.84434724.281913,-31.867064,-12.826795,-3.24006924.315275,-22.189804,-6.213175,1.34603824.348417,-10.477251,4.110542,3.58215324.382102,-0.544401,15.064256,5.62582724.415404,3.040296,16.963674,5.95923124.44871,0.711103,17.507776,6.25881624.48199,-9.985075,16.024216,4.25120624.515277,-20.061133,8.355913,2.24030524.548381,-32.130286,-5.253365,-0.12929224.58229,-38.564185,-16.307939,-2.35567924.615513,-26.2779,-18.357448,-4.27036124.648546,-9.836629,-15.375364,-3.39644624.681991,-1.389734,-14.194082,-2.68160224.717119,4.763135,-11.94016,-4.9370224.74874,8.051988,-12.055236,-7.35869224.781017,4.830325,-11.903797,-9.87374124.815236,-11.821643,-13.806208,-9.98582324.848646,-23.646578,-18.651198,-8.60716324.881912,-41.742601,-20.595957,-6.63771224.916023,-30.732172,-9.96233,0.94963424.948253,-18.683221,0.939608,2.8794324.98207,-6.617211,14.205755,5.28134925.014345,1.870088,22.616436,7.02588625.048217,2.776026,22.43881,6.69607325.081903,-6.095705,19.89488,5.28733425.115241,-12.895032,16.520282,3.90642925.148694,-28.669494,2.533754,1.66193525.183179,-41.721651,-11.204516,-1.04839825.215807,-45.675966,-20.919036,-3.2900525.248615,-22.836112,-17.323116,-4.39441525.281993,-3.400786,-14.509081,-3.28256825.315334,3.463187,-15.376711,-6.93954225.34882,4.7989,-14.011668,-8.88026125.381994,2.094702,-12.564471,-11.61154425.415325,-6.745006,-10.010515,-11.33500425.448617,-14.501898,-9.777072,-8.97124425.486719,-40.843247,-17.573469,-8.94116625.514943,-46.534318,-12.550704,-4.57518325.548732,-30.308682,-6.071314,0.96504725.581925,-17.906125,3.82218,4.73335625.61535,-2.644041,17.040291,6.02118325.650155,3.88518,21.387718,5.87647925.682148,4.598079,21.769906,5.07933125.715241,-6.724655,20.438832,4.14241625.748189,-13.892552,16.007306,4.64252325.781967,-28.832604,5.054041,3.41754625.815829,-44.422706,-7.466285,-2.86132325.848575,-41.507961,-15.092539,-4.44185225.881932,-24.079346,-16.196904,-4.53253525.915329,-11.144808,-15.742438,-4.06909125.955401,0.192291,-16.98208,-6.17157425.981968,2.470605,-16.805202,-7.83500526.015257,1.096284,-17.299024,-11.34308526.048793,-9.196457,-12.858369,-8.9731926.081987,-16.385603,-12.326389,-6.74141526.115415,-33.162822,-14.944093,-7.355126.149244,-42.348804,-10.380881,-4.76986926.181918,-30.108161,-3.453759,-1.46739926.215296,-16.762554,4.880754,0.2389826.248364,-6.280514,13.918141,3.5999626.282743,5.723992,20.983383,6.38795826.315277,3.765017,21.673835,5.39702326.348661,-4.475372,19.941718,3.93620826.381924,-15.766979,13.917393,3.24755126.420239,-28.25169,3.728204,1.73436226.44834,-37.217847,-7.630144,0.55158426.481969,-45.279711,-16.852789,0.55248226.515251,-20.740063,-19.292867,-2.55889426.548732,-7.601113,-17.225998,-1.56795926.581924,0.652743,-17.413052,-4.66242526.616012,6.138204,-16.69297,-6.91410326.648353,-1.503762,-17.481139,-9.99210826.682072,-15.812172,-17.885924,-8.88415226.715589,-28.977758,-15.927397,-7.98195526.748318,-46.246255,-14.768711,-8.44629726.782103,-35.895303,-5.898177,-3.75454226.815252,-20.164986,2.364807,-0.01032526.848595,-6.171574,15.696348,3.62644726.882881,4.070438,21.699724,5.8383226.915364,5.53634,22.702331,6.95196226.948636,-3.362327,20.547323,6.24115826.981903,-10.968978,17.329252,4.92325327.015314,-25.550635,9.562184,4.51098727.048761,-41.774924,-6.055751,0.27743827.081911,-42.751194,-14.131981,-4.31929427.115437,-35.420336,-17.1416,-6.63606627.148324,-15.378506,-17.338829,-5.17405527.181926,-1.0267,-16.567569,-6.73527927.21634,6.020884,-16.052349,-10.68151427.248699,6.967376,-14.7108,-10.06229127.281996,-2.860275,-12.364099,-10.2723927.315331,-11.64267,-11.665266,-9.5093627.354035,-31.897142,-17.215523,-8.56960327.382404,-45.051655,-17.705454,-9.01553927.415248,-32.562156,-8.854373,-4.57832627.448037,-23.167272,-1.1105,1.39631827.481999,-11.3998,13.242503,2.33338227.516017,0.38578,24.73568,4.84020127.54859,3.75948,25.203164,5.82949127.582112,-2.631471,23.814328,5.25725627.614742,-17.981695,16.034242,4.52071327.648449,-37.307633,2.822865,4.83975227.681929,-42.292838,-8.84734,0.99692127.715565,-45.113308,-15.397661,-6.74500627.748667,-21.394003,-16.338017,-4.28352927.781987,-9.676063,-14.836799,-4.89661727.815276,-1.865748,-13.884471,-9.75058527.848393,8.11379,-15.979173,-10.09760727.88192,6.753237,-17.47246,-12.86794727.914603,-3.254734,-14.041746,-14.07436827.948742,-18.389771,-17.77444,-12.10297227.982084,-37.6355,-20.468312,-12.90535728.014411,-44.568458,-15.927846,-10.41799228.048841,-38.583488,-9.862667,0.104628.082171,-22.869183,8.476974,3.19128528.116111,-10.920942,23.808342,7.02334228.148381,0.480653,27.132661,8.52904928.181938,-0.231947,25.735145,6.85274928.215239,-9.110263,21.217275,5.24782928.248636,-19.0274,12.215204,3.78671528.281993,-30.420017,-2.130467,3.24904828.315267,-37.588662,-11.072082,0.55083628.348848,-44.183876,-20.270783,-2.41508828.382028,-27.108568,-18.233095,-5.55803828.415263,-4.554383,-15.551045,-5.74224928.448306,2.674269,-17.935755,-9.44351728.481936,5.881866,-17.310696,-10.50792828.515327,-1.970199,-17.347209,-12.83756928.548649,-9.750285,-13.167831,-11.26377428.581998,-18.209901,-13.167981,-8.49268628.61583,-40.448189,-18.806377,-7.31275228.648367,-36.258785,-12.833529,-5.05194628.681916,-26.736705,-4.357752,-0.15712528.715255,-15.085954,6.812046,2.06597128.748635,-4.601521,21.750004,5.06556328.78256,3.940997,24.134564,6.07580328.815703,-2.066419,24.389256,5.82604928.848591,-13.2437,17.872905,4.57533328.881871,-28.274137,7.219075,4.6941528.917842,-37.595845,-6.610477,3.07471428.948917,-42.349852,-16.556795,-1.44016428.981705,-22.543111,-17.015151,-2.56143829.015268,-12.101326,-17.118555,-1.36549229.048293,-3.303967,-20.229182,-6.97066829.081944,5.211016,-17.374145,-9.6060329.11532,2.953204,-19.223283,-11.68427129.148596,-7.460898,-16.229675,-11.43825829.181997,-21.636724,-16.648825,-9.02960529.219614,-42.306755,-18.628602,-8.70622729.248262,-42.940193,-10.664604,-6.62259829.281932,-29.44644,0.270704,-0.78936729.315264,-12.080825,14.114622,1.92650329.349693,-1.480268,22.705923,5.02426229.381918,3.72177,22.534133,6.0684729.415403,-3.548334,19.89054,4.49587329.448359,-10.278076,17.309649,2.87703529.481922,-17.996959,12.159986,2.45010429.515232,-31.816934,0.51567,-0.07317529.548703,-37.858468,-8.15165,-2.99585229.581924,-34.728836,-13.602993,-5.84580229.615267,-19.063015,-15.7164,-5.44595629.648769,-4.421201,-20.533856,-8.46455329.681918,-0.579717,-19.464956,-9.14797329.715246,0.064047,-20.860077,-7.79280629.748592,-9.483622,-16.341159,-10.06872629.781879,-19.023809,-13.912903,-9.80864629.81521,-39.247754,-16.69731,-8.42355129.848539,-44.216648,-5.54457,-8.1392329.881967,-29.324032,2.83753,-4.01686629.915225,-14.657826,8.154643,2.21366829.94855,-5.639594,19.910293,2.42720929.981889,4.221128,24.999949,2.13211330.015209,-0.505195,23.247481,3.78312330.04767,-7.387124,21.372455,3.80242730.081956,-16.2195,17.010213,4.25913830.115221,-36.083254,6.286799,3.03565730.148515,-43.488635,-6.228888,-1.18981130.181916,-37.52686,-11.235043,-8.73660430.215249,-22.137729,-15.622424,-7.13781930.248749,-12.092048,-19.544416,-8.41367530.282071,-2.567723,-18.040654,-11.45232430.314362,3.019645,-18.179523,-11.51906530.348481,-1.863803,-14.372457,-12.65141330.38194,-14.583453,-13.908713,-14.33818930.415261,-39.645504,-16.077788,-13.03659430.448166,-46.567239,-7.507736,-9.13704930.481903,-32.207502,0.642716,-3.18754430.515258,-14.420343,7.831264,0.6368830.548612,-5.458675,18.904842,2.70644230.582129,1.027299,23.898876,3.39779330.615224,1.294112,23.605726,4.33665330.64868,-7.581959,21.034411,4.3712230.681923,-14.82797,16.763452,4.10754930.715115,-30.073444,7.218925,3.59113130.748727,-41.14373,-8.146562,-0.52494730.781457,-40.156685,-11.960512,-6.91739530.815239,-23.729032,-14.981204,-5.94845730.848647,-11.4833,-17.67807,-5.53768730.881936,0.081406,-18.212893,-10.45944330.915373,5.767538,-17.899691,-8.24577530.948682,1.012185,-17.651283,-8.13444130.980951,-13.49944,-13.970067,-9.36450631.014435,-26.708872,-15.759048,-8.55344131.048296,-48.222889,-15.6534,-5.89488531.082028,-37.571304,-5.312175,-0.90923131.114413,-23.048755,2.804608,0.20680731.148228,-10.786862,12.685532,2.03918431.181899,-2.528367,23.739656,3.36487131.215175,2.587476,25.387824,4.29864331.248594,-3.439842,23.591211,4.61603631.281332,-8.862903,18.567248,4.01656631.31523,-25.459952,7.716339,1.32508831.348568,-36.606705,-3.826819,-0.83515731.381904,-40.68268,-13.384364,-3.11332231.415238,-25.969187,-14.213237,-6.50812131.448657,-11.765527,-17.183051,-5.02665631.482097,-2.185835,-19.627618,-6.45694431.515251,2.714074,-17.320573,-7.93182431.54857,2.612018,-17.00303,-8.55299231.582034,-9.000425,-15.556581,-11.39770531.615246,-18.98984,-14.113126,-12.07513831.648585,-35.496055,-12.618941,-10.19562331.682856,-44.453233,-7.782181,-7.99886431.715226,-30.475684,-2.461028,-1.21450231.74822,-12.871239,8.217792,3.91271431.781881,-4.192995,19.831731,5.65560631.81521,1.513938,23.870145,7.06359631.848211,0.441596,22.717595,5.69361531.881893,-6.90273,19.285085,2.65032631.914225,-14.958159,13.857535,2.34879631.948586,-29.195788,3.272242,0.12016331.98188,-33.669962,-7.416454,-3.72027332.015206,-37.030494,-13.156159,-6.73019232.048542,-27.627979,-16.13151,-5.31741232.081868,-7.428575,-20.380322,-6.85604132.115283,-0.361238,-18.708212,-8.26178732.148558,4.562464,-19.619986,-6.6929332.18187,0.006435,-17.449714,-6.91245732.215272,-15.860955,-14.841587,-8.65280432.248565,-28.751648,-15.90944,-8.82459432.282293,-44.341899,-12.104917,-9.67336932.315126,-30.669172,-1.765188,-3.88024232.34772,-18.802337,2.922227,1.08790432.381906,-8.070094,10.377439,2.18314132.415331,-1.559579,19.751971,1.27271332.448488,5.002264,22.579924,1.6305132.481967,-3.672088,22.096427,2.16742832.515238,-13.56214,17.452707,2.46357232.547851,-37.363001,1.464256,3.6128332.58188,-29.942207,-7.844583,1.50286432.615283,-34.879077,-11.954975,-4.82344132.648186,-18.092431,-15.436418,-2.77213632.681924,-9.4929,-18.679779,-3.71877732.715214,-3.198019,-15.914378,-7.19528232.748569,3.507032,-17.333442,-9.24224832.781895,-2.755825,-18.403239,-10.60025732.815251,-11.419553,-16.486762,-10.8633332.84849,-22.858559,-18.118469,-9.45653632.881484,-46.500049,-14.401188,-6.45245432.915229,-33.453579,-5.098634,-4.295832.948535,-22.777003,2.665739,-0.30317732.981913,-7.842488,15.098824,3.70755433.015231,-2.440228,22.210754,4.30911833.048537,2.31752,22.180377,4.82059833.081922,-2.048313,20.352039,4.04888933.115281,-10.988132,16.614856,2.21875633.148564,-24.686447,7.53153,0.59961933.183117,-34.646083,-6.845566,-2.80221433.214933,-36.539067,-15.356958,-8.8012533.248532,-18.447683,-15.236645,-6.97126633.282069,-8.129353,-17.12888,-4.777833.315249,-0.124503,-16.090507,-6.62978133.348551,4.230705,-17.281665,-5.77786433.381997,1.448394,-18.15154,-7.01466333.41527,-8.400207,-14.052819,-10.14938333.449012,-23.728134,-14.636427,-10.72027133.481957,-41.383158,-15.174244,-8.95553233.515626,-41.465911,-7.111482,-7.37245933.549288,-21.569385,1.30773,-1.61823933.582189,-9.246887,6.750393,2.19226933.615219,-2.277416,16.487361,3.63318133.648167,2.851446,20.858581,3.70979833.681868,-0.063898,21.528233,4.28876733.715206,-6.774336,20.383464,3.13217733.74857,-15.650557,15.598182,3.14145433.782091,-34.699506,-0.966693,0.75375233.815227,-38.307397,-10.118706,-3.93755533.848681,-36.053326,-12.235705,-9.76180833.881887,-17.043883,-16.545572,-5.17345633.915233,-8.601327,-17.131274,-3.88203733.948453,-0.684018,-15.092389,-5.63839733.981975,4.216489,-14.19947,-5.69017334.01431,1.511094,-14.085442,-9.39144234.048844,-10.467973,-13.683501,-11.84124634.083774,-26.264283,-16.3452,-8.56256934.114983,-44.253759,-15.471435,-9.6308734.148478,-38.326552,-5.191712,-8.52725434.181644,-25.492125,1.368934,-3.51840534.215241,-8.459765,10.567486,2.73277934.248568,-1.081769,19.033685,3.97167334.281941,2.720808,21.033813,3.7006734.31523,0.49023,20.535352,4.13268934.34858,-7.508933,17.76576,3.16794134.381896,-19.92017,10.61612,2.1666834.414509,-34.96183,-1.483859,-0.19438634.448619,-35.415547,-13.010107,-5.42440734.481897,-29.432373,-14.535568,-7.75270234.515236,-12.766938,-15.472931,-5.36799234.548662,-2.618153,-16.133605,-4.22367234.581785,0.712001,-15.299944,-4.71450134.615416,3.375496,-16.727837,-5.10596734.648669,-1.619885,-17.583196,-9.91025434.681915,-16.780212,-16.080481,-13.57860134.715265,-29.684073,-18.057115,-10.63736934.748537,-44.926254,-14.331904,-8.04660134.781883,-26.882158,-2.196908,-2.87898134.815248,-15.960318,4.895719,0.84907434.848512,-4.342339,13.890756,4.66975834.882062,0.534225,20.262702,4.32812334.91522,1.355915,21.213234,3.71518534.948585,-5.423958,20.254771,3.88173834.98197,-12.496383,17.629136,3.47800135.015349,-31.585885,3.509426,0.76168335.048556,-39.576369,-12.083967,-1.84015935.081898,-41.295168,-19.089951,-8.08146735.115247,-15.732262,-16.325896,-7.39490635.148458,-5.651116,-15.189507,-3.80916135.18199,0.351661,-15.438214,-4.73320635.21525,4.412821,-13.92248,-5.79417535.2485,4.146606,-14.341481,-8.80469235.281992,-6.044677,-14.493817,-12.16163235.315267,-20.38092,-16.909204,-12.55609135.348535,-39.154526,-16.799067,-10.81843735.381927,-42.672482,-9.58927,-7.69419135.414934,-28.522544,-0.63269,-2.095635.448466,-11.073129,8.541619,3.46842435.481949,-2.370195,17.549826,6.06203635.51526,4.012376,20.466666,5.37367835.548509,3.129932,20.206886,4.61528835.581904,-7.873015,19.488899,3.22914535.615341,-16.708683,15.7583,2.82600735.648473,-33.33132,3.458997,-0.05417135.683032,-37.52686,-11.332909,-5.05643535.715241,-35.367063,-14.910573,-9.33023835.748069,-20.659855,-14.862986,-8.05692635.781905,-8.213752,-16.342057,-5.07229735.814672,-1.256103,-15.862152,-5.5448735.848573,1.762195,-15.694552,-5.7627535.881933,3.310252,-15.979472,-5.83667335.915266,-8.191605,-14.219073,-10.63377735.947998,-21.312448,-15.370575,-9.32589835.981895,-35.562796,-17.085483,-6.85738836.015228,-36.203268,-6.025224,-5.64812336.048499,-22.563164,-0.199474,-2.81927336.08189,-11.977272,5.252168,0.0670436.115248,-2.17955,16.667531,2.75747136.148542,2.102184,20.119195,3.47635536.182079,2.012997,19.980476,3.28226836.214836,-7.209498,19.550851,2.4601336.248466,-18.525198,11.823589,1.85272936.282931,-31.276723,-0.12151,-0.79161136.315923,-29.893723,-9.183288,-3.44552936.348507,-33.617887,-16.560087,-6.70954136.381924,-17.968676,-18.592089,-4.6857736.415351,-8.544912,-16.276065,-4.33231336.44848,1.539078,-13.674522,-6.21467236.481989,6.250736,-13.487319,-5.87827436.515244,2.412244,-15.212552,-8.89881736.548598,-8.133842,-14.458502,-11.77839636.589264,-24.015448,-17.24635,-9.50651736.614844,-41.811736,-18.284423,-7.93930736.64831,-38.918988,-10.084139,-5.72623736.681921,-23.222341,1.40395,-1.75860436.715318,-10.606542,9.323953,1.99414236.748308,-3.12664,18.40698,3.76606436.782136,4.249111,20.553159,3.07411536.815593,-0.933622,19.939923,2.50666936.848275,-9.736219,18.493923,1.98037536.881931,-18.015365,11.79351,2.36196436.91565,-32.431517,-4.154687,-0.75824136.94857,-34.269881,-11.600321,-3.92184236.981983,-33.017369,-14.141707,-7.51955837.014511,-18.890626,-16.195856,-6.46981337.048723,-6.203299,-17.540847,-7.67743137.081994,1.197293,-16.608122,-7.87525937.115361,5.42336,-17.054358,-5.9930537.148688,-2.527918,-15.950142,-9.34639937.181301,-15.109448,-15.182474,-13.23217837.215318,-27.045868,-17.227495,-11.64985337.248771,-39.80652,-11.636984,-7.18555537.281981,-28.543195,-4.661827,-2.17865237.315049,-18.131937,2.348197,1.37791237.349014,-5.260399,16.544823,4.16620937.381924,1.167065,20.973656,3.94129637.415241,1.914981,21.99048,3.61806737.448651,-5.333275,21.07691,3.33209937.481918,-15.722386,15.650258,2.09365437.514725,-31.089519,4.120119,-0.32412737.54881,-34.944172,-8.722089,-3.34526837.581884,-34.752479,-14.572829,-8.64981137.615228,-18.094526,-16.536892,-7.91237137.648268,-9.385456,-17.524685,-5.61505237.681916,-1.308328,-18.383486,-7.77799137.715234,0.756744,-18.053224,-7.03770837.748577,-1.805891,-17.856294,-9.1404937.781926,-10.939648,-15.28468,-10.3769937.815416,-22.657139,-13.05919,-9.61485937.848036,-38.470059,-11.394861,-9.53420137.882056,-34.030003,-5.106566,-5.31172637.915262,-19.446251,0.706315,-0.46718537.948781,-8.071142,8.911986,0.94798837.98245,-1.061268,16.970258,1.39078238.015578,4.013723,18.655388,1.88954138.047999,-3.029671,19.60158,2.25152838.081924,-10.068426,17.857342,2.2046938.115827,-22.130097,10.089526,1.92126638.148549,-33.961766,-4.68547,-1.89747338.181889,-38.25577,-11.741584,-5.40809638.215261,-29.015169,-15.372221,-6.06577738.248269,-12.436077,-17.05361,-4.52340738.281901,-3.159262,-17.04074,-5.35916338.31526,1.574693,-16.746692,-6.63831138.348615,5.980331,-15.160327,-7.59527738.381981,-3.136666,-15.412924,-12.55070438.415332,-15.180229,-14.520603,-13.34620538.448482,-27.552259,-16.37034,-13.34351238.482048,-43.610594,-12.832781,-9.95035838.515756,-33.211157,-3.526785,-3.478638.548224,-19.480369,5.373229,1.27480838.581992,-5.767688,18.769116,3.31638738.614963,1.414724,22.712806,3.62854238.648725,2.707041,22.315056,4.74457938.682013,-5.223287,20.540589,4.05457638.714959,-18.045742,13.557052,2.51908938.748607,-33.622675,2.222048,-0.00628538.781186,-34.744399,-9.510557,-2.53659838.815225,-33.34419,-17.57317,-4.21873438.848292,-16.259305,-17.937101,-3.55327238.881911,-7.634334,-15.525905,-4.99178938.91524,0.253645,-16.577895,-7.8161538.948471,4.502457,-15.393022,-6.34725538.981926,3.643656,-14.474663,-8.77820539.016061,-9.510557,-12.445804,-11.33784839.048617,-22.491036,-15.60731,-11.23160139.084746,-43.035067,-19.87378,-11.16007239.115228,-35.063737,-10.52394,-6.51051639.148496,-19.145618,1.106011,-1.33227139.181905,-7.63209,7.46434,2.52477639.215338,-3.408268,16.827499,3.8516639.249726,1.13145,21.322923,4.2079639.281886,-3.421137,21.103097,4.5599239.315215,-10.791202,18.643865,2.64613639.348613,-24.76905,10.083241,1.47488139.381951,-31.885171,-7.955169,0.63493539.41525,-30.558437,-12.981376,-4.8868939.448684,-31.158654,-15.683329,-7.88498639.481911,-12.360807,-20.216313,-5.34973539.515232,-5.971352,-18.00908,-6.65342539.548591,2.818824,-15.131296,-6.61302139.582002,8.035527,-13.189829,-4.20436839.615346,2.211573,-11.588799,-7.07841139.648714,-9.808796,-12.165223,-10.92019439.681944,-27.032699,-18.597476,-11.17294139.715323,-41.552704,-14.826174,-8.68123639.748558,-27.835683,-4.91622,-5.72189739.781759,-16.578493,2.875389,-1.32224539.815277,-5.973447,14.816747,3.42113739.848645,1.000812,19.308878,4.09019139.880996,3.555965,20.776876,4.61887939.915276,-6.302063,19.935134,3.30785739.948567,-15.710714,13.815935,2.02032939.981971,-34.985174,1.533092,-0.64825340.014343,-37.548707,-12.068704,-3.35454640.048516,-30.956936,-15.723433,-6.65192840.081882,-10.810805,-16.29043,-5.39238440.115295,-4.30822,-14.961003,-3.24844940.148261,1.252811,-16.230723,-3.50239340.181911,4.604813,-14.198123,-4.17638540.214968,5.86316,-13.35698,-7.80402940.248845,-8.908694,-13.215717,-11.13104140.281934,-24.309048,-16.69312,-11.4204540.315254,-38.749143,-17.442232,-11.4958740.348254,-38.220604,-9.677858,-7.73624140.381929,-19.412132,2.697613,-1.19130740.415233,-7.923145,8.315659,3.25548240.448576,-0.817649,15.702334,5.8131840.482004,5.228375,18.40309,5.36185640.515541,-1.909294,18.596129,4.46384940.548674,-11.206311,17.4349,3.80317540.582861,-23.242094,9.143184,1.63185640.615647,-28.626845,-5.731774,-1.4626140.647999,-31.055999,-11.505597,-5.09908340.681879,-31.708293,-13.994908,-7.22790440.715215,-11.89841,-17.065282,-4.37226840.747693,-3.122001,-17.286304,-6.02866540.782028,3.037004,-16.66798,-6.27946740.815272,3.358886,-20.218707,-9.0483140.848593,-5.377719,-14.758835,-15.23185640.882516,-15.378357,-14.187797,-17.00437740.91482,-30.099781,-16.231621,-15.07173840.949084,-36.173788,-10.269846,-7.78816740.981929,-25.412814,-4.22023,-1.13189941.015254,-14.009722,5.1971,2.56817241.048521,-2.682051,19.599635,4.46130541.082387,2.650626,22.424445,4.20646341.115251,0.437855,22.627959,4.3921741.148853,-8.447943,21.163703,4.04529841.182114,-22.974532,13.006965,1.95852741.215088,-38.156108,-0.126299,-1.42789341.248285,-35.799681,-9.808197,-4.60750641.282705,-34.02297,-14.777091,-8.09448641.314328,-16.553353,-16.527615,-8.92724941.348431,-6.14,-18.140915,-9.17790141.381926,2.68654,-18.106198,-8.00395241.414489,3.752297,-17.881883,-8.58471741.448822,-5.658149,-14.688503,-12.91852641.48248,-19.27476,-14.715738,-15.08520641.51546,-36.045095,-13.550019,-13.89823841.549199,-40.084108,-8.246524,-11.15214141.581913,-29.251605,-3.277629,-2.7704941.615374,-15.141472,8.24368,0.89666141.648654,-5.072746,20.848704,1.86365341.681938,4.264225,25.545547,4.47731741.71524,0.619671,23.906808,5.38280641.748742,-10.16764,22.081463,4.4087841.7823,-22.170949,15.601474,3.10239841.815293,-39.14869,1.736756,1.07907541.84858,-36.017711,-11.676041,-3.36098141.883482,-38.331041,-16.607225,-8.64143141.915235,-18.817301,-19.321897,-7.52614241.948545,-5.034587,-17.710991,-5.58392741.980993,3.609538,-16.895287,-5.65066742.015261,6.129974,-15.722236,-5.30663842.048811,-3.578861,-15.984411,-10.61851442.082158,-15.494929,-15.099123,-14.35958842.116265,-28.005977,-16.892145,-12.77816142.148097,-46.552125,-14.612634,-10.26984642.182236,-33.261587,-2.573859,-0.25454342.215266,-19.53469,8.270766,5.26698342.248541,-7.765122,22.138477,5.9891642.281907,3.47426,26.862854,6.94732342.315229,0.924943,24.417689,6.53281242.348571,-10.556861,22.009934,4.06983942.381901,-23.739357,12.123623,1.13474242.415065,-33.437716,2.516545,-1.17634342.44894,-34.154656,-4.477766,-3.37549642.481266,-35.546186,-9.017334,-6.74021842.515464,-24.183647,-14.655881,-6.29368342.548257,-13.467716,-18.734549,-9.21336742.582365,-4.226066,-20.235767,-11.7643342.615266,1.088503,-21.477654,-9.28684142.648462,-3.527533,-16.660348,-9.6395542.681926,-13.719714,-12.726384,-11.08764442.720479,-33.409135,-13.158404,-9.69835942.748671,-46.191037,-6.125185,-10.55162342.782173,-37.362402,-2.428256,-5.25665742.815273,-27.397977,3.03416,-0.15892142.848452,-13.036445,20.037191,2.55799742.881914,-1.24039,26.570751,1.98202142.916026,2.646735,27.958989,4.56036942.948674,-4.968146,23.912793,4.17054942.981906,-14.678327,19.01064,4.73096243.01439,-27.379571,8.051239,4.67544443.048527,-34.624684,-0.398649,0.62969843.082011,-48.905111,-13.519043,-7.21772843.114835,-27.950759,-15.990546,-6.79408943.148212,-14.355697,-18.78857,-5.26339143.182073,0.123605,-18.505445,-8.26762343.215531,2.605284,-19.309028,-10.16015843.248451,-2.262601,-19.037276,-12.79806343.282085,-15.874423,-16.622488,-16.40670343.315152,-25.01656,-13.887165,-11.80413543.348836,-42.500991,-10.496256,-8.91722343.381917,-39.563949,-5.382657,-3.70141843.415504,-28.963991,1.881161,2.75926643.448189,-15.721488,14.789961,2.98597543.481981,-4.661228,25.042149,3.86871943.515264,4.531488,25.800838,3.91555743.549019,-0.672944,24.399881,2.92791443.581904,-11.661824,20.731235,3.26386243.615309,-20.041081,14.023639,3.00602843.648455,-35.952167,3.029671,-1.31865443.682228,-45.605334,-7.60695,-2.82675543.715269,-40.248117,-14.603506,-3.20714843.748954,-19.996039,-20.446763,-5.82679743.781911,-7.67818,-18.978467,-5.33626743.815054,1.513638,-19.009742,-7.98479843.84784,1.999828,-17.037448,-11.20331843.881906,-7.430521,-17.272088,-12.91373743.915256,-17.885924,-13.253876,-11.22396943.949698,-43.184111,-14.307212,-5.47319143.981892,-45.331338,-6.37045,-0.62101844.015279,-31.983187,1.338107,0.4486344.048255,-17.796138,7.052074,2.95754344.081927,-5.120931,17.553866,3.63288244.115287,2.456838,21.724714,2.86431644.148591,4.701332,21.640764,3.54040244.181996,-7.745369,19.845049,4.41401844.215242,-14.684313,16.086168,3.33419444.248582,-22.812918,7.069282,2.7450544.282175,-34.753976,-1.330924,-0.25768544.314709,-40.7578,-12.513592,-3.30531344.348593,-24.557006,-11.611245,-5.18722344.382146,-12.61071,-13.507221,-6.30730144.415621,-8.816513,-17.036101,-6.51126444.44882,-1.358309,-18.749363,-10.80736344.481427,-2.00327,-19.278501,-12.40510144.515261,-8.630657,-16.508909,-11.0476944.548482,-15.406041,-11.526847,-9.6269844.582043,-35.082741,-14.376946,-9.97923944.615431,-46.259423,-9.772133,-6.65028244.648328,-30.605873,-2.979241,-1.88804544.681904,-19.460018,4.995082,1.35082744.715259,-9.759863,17.472011,1.86155844.748762,3.067381,25.025688,2.3429644.782028,0.887832,25.338891,3.88562944.814879,-6.963934,22.335706,2.65526444.848529,-17.800627,13.300415,3.64245944.882004,-31.000482,0.486789,3.15971144.91443,-38.617158,-9.867306,0.24212244.948491,-37.886003,-13.016692,-3.23842344.981917,-21.492169,-17.378634,-2.86087445.015231,-12.725187,-17.252485,-3.56913445.047866,-2.956346,-15.731813,-6.20000745.082091,3.973918,-16.682345,-8.55837945.115144,3.161357,-16.253469,-10.66161145.148654,-5.238102,-14.208598,-13.12787645.18227,-18.511281,-14.275638,-11.04484745.215319,-41.086117,-19.431137,-10.80706445.248376,-46.466978,-11.250157,-6.15780745.281751,-33.224326,-5.092649,-0.04848445.315232,-16.237158,8.120823,5.03847845.348522,-6.272284,23.378568,3.06334145.381899,2.343109,27.806203,4.31585245.415275,-2.123134,23.680847,4.82448945.44844,-9.168923,20.163938,3.18679645.481614,-16.828397,13.467117,2.00880745.515479,-32.247756,3.73838,1.05588145.548583,-38.200702,-10.290197,-1.32104845.581987,-37.388739,-15.996981,-0.62640545.615247,-17.26296,-16.17341,-2.29208145.648527,-5.749581,-17.989626,-7.34507445.681974,-0.327868,-17.974213,-9.86730645.715588,2.012847,-20.621696,-8.76039745.748083,-7.202165,-17.266851,-10.08623445.782085,-18.740385,-15.779849,-12.66383445.815242,-37.070598,-17.615968,-10.16719145.849137,-39.099008,-8.204025,-4.20391945.881903,-28.202608,-0.970435,1.00739645.91523,-15.58232,7.378894,4.00609145.948517,-5.931547,17.649937,5.3477945.982796,3.161058,21.676828,3.81170546.014738,0.57837,21.610836,3.87485446.048449,-6.769697,19.641834,3.68241446.081993,-20.403816,13.228586,3.33628946.115262,-32.896907,3.442087,1.06276446.148776,-30.518781,-6.57576,-1.67345746.182119,-38.56194,-13.610774,-3.75199846.215234,-19.604722,-18.098417,-4.91951246.249008,-11.963505,-19.103568,-4.74487946.281911,-1.861708,-17.221509,-6.21886246.315352,5.046858,-17.500743,-6.90991346.348603,3.572875,-16.280853,-8.90525246.381211,-10.130379,-14.753148,-12.47019646.415274,-28.245405,-15.261336,-12.531446.449164,-45.563733,-13.153765,-10.96553646.482216,-38.715922,-5.190515,-6.3117946.51556,-21.6047,2.989417,-0.1969346.548599,-8.365639,9.163386,3.34945846.58195,0.216084,18.261378,4.00279946.615274,4.603466,21.422435,3.27822846.648429,-2.564282,22.582019,3.78342346.681893,-10.254732,20.434343,3.34766246.715328,-20.853194,13.949865,2.09320646.748417,-38.316825,-6.182648,-0.04998146.781782,-37.721545,-13.329745,-2.74205746.815488,-27.956295,-12.180786,-5.83308246.848613,-15.099722,-15.737649,-5.86495646.880974,-8.96062,-15.517076,-8.3906346.915229,-1.638291,-17.332394,-9.23596346.948809,1.987109,-20.151518,-7.69434146.981917,-2.803411,-15.445995,-10.88757247.015056,-10.91765,-13.663,-12.66278647.058911,-27.604784,-14.136919,-11.09856847.081256,-40.127504,-13.713579,-12.66847347.115416,-30.36824,-3.698575,-8.02669847.148532,-18.011923,3.266406,-1.16317547.181906,-7.419447,10.387316,3.58469747.215352,0.987793,19.261741,4.7945647.248588,4.431077,20.115454,4.43332247.281929,-3.710247,19.440564,4.73679847.315257,-14.649596,14.250348,3.41964147.352121,-31.003624,5.419768,-0.8842447.382038,-34.020127,-6.835241,-3.88353447.41571,-35.035454,-11.862346,-8.29291347.447921,-17.529773,-11.971585,-7.98105747.481907,-7.998266,-13.727795,-5.73027747.515229,-1.440613,-14.117166,-5.48995147.548694,2.080037,-14.726362,-6.8564947.58192,1.260891,-17.655174,-11.56066647.61526,-10.210587,-16.912347,-16.23880447.648463,-20.14224,-14.246009,-12.07947847.682369,-32.779138,-13.324058,-11.63952847.715266,-37.477627,-8.319998,-9.31153247.748352,-26.75975,-3.173927,-3.87141347.781902,-12.699,4.121167,2.66229847.815516,-3.848817,13.209133,5.14846647.848638,1.046752,17.977505,4.46594447.885413,0.947838,19.045956,5.32025647.914962,-6.372844,18.284273,5.39178547.948635,-14.695985,15.529496,5.01618147.981165,-31.781319,6.281412,1.57409448.015224,-36.511682,-9.752829,-3.58574448.048431,-35.388163,-13.276173,-9.32709548.081914,-19.719648,-15.491786,-10.06962448.115337,-6.215869,-16.270229,-5.67401248.148537,1.312518,-15.962712,-5.73087648.18208,5.669073,-14.281474,-6.61721148.215296,5.780408,-11.55453,-8.57154848.248451,-7.241821,-13.726897,-11.57802448.289744,-25.785724,-15.614942,-12.87408248.315357,-34.531157,-14.508482,-11.54405548.348103,-33.554139,-8.437767,-6.17022848.381944,-22.202973,-3.36128,-0.64496148.415416,-11.920557,5.187522,2.83259148.44845,-0.269806,16.267834,5.83906848.482014,1.966308,18.225763,6.66449848.515238,0.228804,17.489519,6.0101148.548531,-9.726792,16.988216,3.41769548.581594,-18.661373,11.503951,2.04008248.615182,-32.412662,2.470755,-0.880248.648876,-32.66511,-10.605495,-2.92731548.681932,-32.340834,-13.531763,-6.64354848.715258,-15.221381,-14.729655,-6.64549448.748467,-6.74351,-15.884449,-5.44954748.780918,0.822887,-17.64006,-7.85101748.815321,4.818952,-15.254153,-8.82474448.848593,3.564495,-12.80779,-10.66475448.882056,-12.802253,-11.45427,-13.31388348.915838,-23.870145,-12.293916,-12.92376348.948565,-38.472453,-14.333849,-12.3596148.982639,-31.736725,-5.012291,-5.42710149.015088,-19.24109,0.832913,0.27938349.048647,-7.159068,7.29659,4.4592149.081907,-0.897708,14.860293,5.93528849.115238,2.640001,17.681811,5.81871649.148667,-0.574928,16.586125,5.87857449.181966,-7.896209,15.141173,4.52191149.214384,-21.698527,9.300608,0.96714249.2487,-34.513949,-2.889306,-3.15611949.281907,-35.168038,-11.911279,-4.27754449.315401,-31.260112,-14.378293,-4.70866549.348679,-7.893815,-16.16054,-4.64431849.382027,-2.920282,-15.644123,-3.99786149.415435,1.885651,-15.495677,-4.64042849.449077,5.647824,-14.47167,-7.53467249.481991,-0.537517,-12.352127,-11.52205849.515327,-16.084222,-14.553824,-12.99499349.550071,-26.920018,-15.602372,-11.66406949.581959,-37.045009,-10.849413,-9.85653249.615391,-28.081696,-4.627858,-4.91128249.648496,-18.220675,1.246526,0.335249.681971,-4.9243,10.387016,4.77181449.715786,0.075121,15.622424,4.98490649.748588,2.481679,17.001683,5.34075749.782013,-4.163366,16.726939,6.18504249.815367,-11.145107,14.793702,4.12894849.848853,-23.753424,6.900934,-0.10759349.881893,-27.801864,-7.916411,-3.62001349.91524,-30.927905,-13.624841,-6.98174149.948281,-26.015576,-13.934901,-7.99123349.981925,-11.466989,-14.237329,-6.29562850.015251,-0.362435,-13.90183,-6.00502250.048411,3.76771,-12.34285,-6.21676750.081979,8.451684,-13.794536,-7.59123750.120025,-2.080187,-12.425153,-12.6318150.148163,-16.195407,-15.501662,-13.38840550.18194,-27.745598,-17.701264,-12.17420250.216349,-34.940431,-11.589846,-10.79000550.251627,-25.387225,-4.23295,-6.14119750.282423,-17.187839,0.515221,-0.07691650.315249,-7.517463,6.870856,3.27882750.348962,0.160866,16.603633,3.82786750.382173,1.227222,18.283675,4.66556850.415342,-4.876415,17.656072,5.3896950.448836,-15.834768,12.901766,3.15626950.482789,-30.974743,1.646671,-0.74028450.515272,-34.363258,-10.507628,-2.27427450.549107,-32.162908,-13.112613,-4.32857250.581909,-10.939348,-13.414143,-4.77615450.615299,-5.38954,-14.315593,-4.88808750.648703,-2.282803,-15.722535,-5.17225950.682285,3.953417,-17.054507,-7.67683350.7154,2.479284,-18.03826,-11.36538250.748585,-10.951469,-17.193226,-15.41920950.781977,-33.282686,-19.050445,-14.27548850.815469,-43.938761,-13.794087,-9.89394350.848829,-30.831685,-3.845824,-2.98552650.88207,-17.025926,6.023278,1.3662450.91535,-4.027191,16.007456,4.27290550.948513,0.587498,20.108121,3.73299350.981942,0.75031,19.936032,3.91256451.01563,-6.602696,17.268347,4.70537351.048839,-14.806721,15.285578,3.23692751.081957,-25.778841,7.558316,-0.22356751.116913,-32.830166,-7.348367,-4.93731951.148608,-34.883567,-13.339322,-8.27016751.181946,-22.62347,-14.962649,-6.84915851.215275,-9.467909,-18.967244,-3.92124451.248299,-2.73682,-16.374979,-2.80011951.281908,0.96385,-16.42466,-6.35219351.315257,3.8976,-14.997964,-8.40828851.348444,-6.583691,-16.036636,-11.11398251.384091,-24.375938,-16.013741,-12.41886851.415297,-40.624169,-17.269245,-10.97481451.448913,-41.70534,-8.817262,-6.57441351.482019,-23.035886,2.392192,-1.61135551.516303,-9.734723,7.456558,1.63140751.549475,-3.422633,14.586297,3.14579451.581973,0.567296,18.10111,2.4979951.615333,0.249604,18.686364,3.96853151.64865,-6.316878,17.364418,4.37017351.682246,-18.052775,10.87575,2.80415951.715721,-32.159017,0.591539,-1.34813351.750013,-27.692624,-9.430349,-3.77923351.782031,-28.429317,-13.277968,-7.77080951.815471,-18.26901,-15.203873,-7.84428351.848837,-8.089099,-16.942724,-5.93244551.881995,-0.622365,-14.578964,-4.55183951.915306,5.184978,-14.023639,-6.01609551.94856,3.9817,-13.267344,-8.22871651.981998,-6.289792,-14.684313,-11.95063552.01529,-22.925748,-16.244939,-12.85028952.048781,-37.569957,-16.403112,-11.58745252.081912,-36.816056,-7.619968,-6.72689952.115319,-20.359671,0.371414,-1.9070552.148565,-10.636172,6.230085,2.77093852.182005,-3.859292,13.785707,4.10066652.215326,0.639724,17.30067,5.11464652.248733,-0.269058,17.81634,5.00495852.281942,-7.612187,16.202291,4.08016552.315403,-15.538325,10.107334,2.4225752.349894,-28.902039,-5.571057,-2.66633852.382017,-26.924358,-12.875129,-3.35170352.415295,-27.957941,-15.173645,-4.48360252.448586,-15.378357,-15.831775,-4.29116152.481973,-2.634015,-14.465535,-3.21238552.515713,0.1676,-14.219222,-5.10776352.548647,2.302107,-13.772089,-7.27339552.582782,0.018107,-14.567292,-10.94159352.614675,-10.318629,-12.80779,-12.88650252.648858,-18.939859,-14.009273,-11.81565752.683413,-33.425146,-13.40292,-9.55215852.715261,-26.988105,-7.395205,-4.83541352.748665,-18.859201,-2.977146,-1.50645652.781751,-9.566823,4.321838,2.24254952.815319,-1.168861,14.581209,4.38543652.848826,1.610906,16.958437,4.69594552.882002,-1.838214,18.126101,5.7880452.915621,-10.543842,14.496212,3.79344952.948674,-21.591981,6.393196,-0.18765252.985936,-29.486544,-9.292827,-2.57715153.015584,-32.967239,-16.130462,-3.07531253.048378,-24.841028,-14.952772,-3.80796453.081905,-9.214264,-13.791543,-4.18177253.115293,-1.891487,-12.30933,-2.04876253.148768,2.0956,-14.075865,-2.38800253.182135,4.709114,-14.083796,-4.6271153.215233,0.271003,-14.365573,-8.98186953.248679,-15.889687,-14.669947,-11.34577953.282037,-21.645403,-14.110582,-9.77063753.315274,-32.434809,-11.497367,-8.77281853.348347,-32.033916,-7.097565,-5.9176353.381922,-19.916728,-1.142823,-1.41741853.415533,-9.105025,6.530119,2.18882753.44919,-0.121211,15.518123,4.73320653.481927,5.055088,18.159022,5.72548953.515333,-1.637543,18.067889,5.5908153.548243,-9.814033,15.777155,4.01132953.584142,-30.61979,3.060049,-0.71978353.615952,-31.234374,-10.681663,-2.47584353.649214,-30.568912,-14.633584,-4.90095653.682095,-13.945675,-15.784937,-5.73940653.715351,-6.267047,-15.197139,-4.89796353.750664,0.073924,-14.515366,-4.68472253.78194,2.407306,-13.232926,-3.73987753.815502,6.336182,-12.157442,-6.04198453.848564,-0.500107,-12.010493,-9.44815653.882072,-15.363093,-15.160177,-11.38932553.915296,-28.600957,-16.293872,-10.73269153.949763,-33.869137,-12.032939,-7.18286153.982046,-23.492446,-5.884559,-2.80251354.015821,-14.08215,0.409573,0.25319654.048689,-4.818653,10.020391,3.77743754.082039,0.313502,14.960254,5.88515854.115332,1.678096,16.892145,6.13221854.14886,-5.987813,17.867517,4.60496254.181992,-12.775168,13.718816,3.17886554.215317,-27.884317,3.291247,-1.72972354.248881,-34.084324,-11.159623,-6.64369854.283016,-31.74316,-15.955829,-8.50046854.315285,-15.529496,-16.652866,-6.40172554.348664,-3.027277,-18.129393,-4.65015554.382059,3.881139,-14.520903,-3.59951154.415422,8.258495,-13.986977,-4.87596654.448815,7.829169,-10.785815,-6.60748454.481952,-5.825001,-11.002198,-12.13559454.517485,-24.594417,-15.637089,-13.46831454.551424,-36.585157,-18.437657,-10.31174654.581968,-33.82185,-11.182368,-5.10297454.615294,-17.85794,-2.15007,-0.82168954.648578,-8.409185,2.855187,1.62811554.68166,-1.038821,9.75268,2.64134854.715451,2.446513,15.644422,2.87449154.748785,1.102569,17.045978,3.76546554.781978,-5.236755,16.159493,2.85713354.815576,-20.680057,6.991618,0.07272654.849748,-32.921598,-4.520863,-4.23369854.881985,-29.401547,-12.307683,-5.92107254.915313,-22.70727,-15.016071,-5.16058754.948641,-9.482275,-16.052349,-4.21110254.982026,-2.771986,-13.614216,-4.28861755.014597,1.344392,-12.025756,-4.19688655.048927,5.825001,-11.404888,-3.68540655.082066,6.50453,-12.654705,-7.46748255.115447,-2.697314,-12.1332,-12.25545855.148915,-24.214623,-17.548479,-14.52643955.182851,-38.66669,-19.693311,-14.102855.215327,-32.720927,-9.525073,-8.87622155.248877,-20.69951,-2.463422,-4.16920255.282379,-7.410917,4.881054,2.48003355.315419,-1.93204,13.375835,3.6212155.3486,1.507802,17.919893,3.5957755.384304,-0.837103,18.815356,4.87506855.41537,-8.803943,18.548692,3.1808155.448501,-19.395821,11.785729,1.03657755.481941,-35.853851,-7.197526,-4.28293155.515461,-30.518183,-14.063594,-6.73019255.548593,-27.806503,-16.161588,-8.79436655.58214,-11.462201,-18.271703,-6.4331555.614893,-0.711702,-16.241497,-4.96425555.648385,3.174226,-14.278481,-5.1381455.68194,6.4541,-11.733952,-3.89595455.715252,3.940099,-10.605944,-6.0349555.748116,-9.295072,-10.852705,-10.88981755.783791,-26.840408,-15.12561,-13.38795655.815611,-36.171843,-15.960617,-11.3495255.848596,-29.428183,-6.369253,-5.13754255.88206,-17.89999,-0.697635,-2.03200255.915308,-9.531507,3.371905,1.09014955.949082,-0.542156,11.481654,3.57646655.982159,1.255654,16.162486,4.10380856.015327,1.268972,17.355888,5.12033356.049237,-7.638225,17.447619,4.01821256.081919,-17.741817,11.069687,1.12411856.115363,-28.240767,0.504297,-4.44484456.151409,-33.052087,-13.735427,-8.55344156.183232,-29.377305,-16.182538,-8.05707656.215327,-13.973209,-16.356573,-6.47445256.248933,-4.025395,-14.146197,-4.79560856.281884,2.277266,-13.424768,-5.44520856.315205,4.999122,-12.600235,-6.63711456.348534,4.852023,-10.977657,-9.32889156.381879,-12.745688,-12.013186,-15.67165756.415213,-23.721101,-12.539331,-15.39047856.448287,-34.155404,-12.869144,-12.65994356.481988,-28.519252,-5.986616,-5.06780856.515217,-17.885026,-1.023707,-0.45506456.54847,-7.698082,4.214694,2.71646856.581978,-0.542456,11.815807,4.22142856.615242,3.573324,17.38028,5.69840356.648935,-0.166852,18.982657,5.53798656.681859,-8.490591,19.174349,3.49730556.71526,-24.550571,8.005,-0.26546756.748682,-35.909668,-5.155948,-4.82164556.781956,-32.172186,-13.153166,-5.79103256.815433,-28.832305,-15.138778,-6.73168856.84838,-11.260332,-16.760609,-4.73126156.881993,-3.824275,-16.031997,-4.51412956.91451,1.935183,-14.278631,-3.81305256.948218,7.417053,-14.649296,-4.55602956.980987,5.362455,-12.096238,-8.72852357.015212,-5.578839,-11.489585,-13.79992357.048545,-27.964975,-16.633262,-15.87202957.081917,-38.126778,-16.13989,-12.9545957.115287,-30.742348,-6.926673,-4.70537357.148629,-19.120179,-0.62446,0.8842457.182014,-6.227691,9.097094,4.39755757.215735,0.867331,16.371238,4.17473957.248339,2.412993,18.183863,3.50987557.281922,-2.949612,18.761036,4.5768357.315323,-10.402878,17.906125,4.36508557.350757,-23.303447,11.7142,3.32596457.382294,-44.470143,-7.861343,-3.55761157.416346,-41.443464,-15.221082,-5.87363557.44836,-23.206927,-15.369677,-4.62546357.482149,-9.699407,-16.464465,-5.84759757.514907,-3.49536,-16.594804,-7.40508157.548422,3.292145,-17.48069,-8.15748657.582194,6.519045,-14.357792,-8.84240257.614992,-1.765338,-11.54196,-12.36559557.648955,-15.521715,-12.206076,-13.36610857.682656,-30.125519,-13.72974,-11.99926957.715846,-42.91236,-13.30236,-7.62400957.748663,-28.980901,-3.724613,-1.37013157.78188,-15.304134,2.498289,0.88394157.815215,-3.886676,10.55327,3.99187557.848571,2.110863,19.267128,5.32399757.881737,2.130766,20.931457,5.65111657.915616,-4.866538,20.199254,4.64252357.94869,-14.657527,16.00581,2.15321257.982016,-32.033467,5.227178,-2.03933458.015359,-33.379505,-7.846977,-3.20295858.049609,-33.48246,-14.685809,-6.17112558.081928,-20.558696,-15.583667,-6.60015258.116311,-6.416091,-18.322133,-5.44954758.148381,-0.453717,-16.855482,-4.19703658.182379,4.787228,-17.202055,-5.53065458.21543,6.125484,-13.566929,-6.44811558.249269,-0.476613,-11.500809,-10.87126158.282699,-20.614812,-12.203532,-15.59863158.316018,-33.981519,-14.454162,-14.52269858.348626,-40.824392,-11.513828,-11.0349758.381829,-30.145871,-3.389862,-5.35362658.4153,-14.685959,3.408866,1.92755158.449093,-5.289878,12.245432,5.62567758.482149,3.962246,18.666312,6.88282758.515964,3.077706,21.503093,6.6511858.549414,-5.336567,20.961236,4.71988858.581935,-14.376048,17.532467,3.21238558.620176,-38.482031,0.751657,-1.53593558.648599,-38.647685,-12.539031,-3.24858.681915,-34.813833,-16.008952,-4.56081858.715265,-17.970023,-15.494779,-3.2144858.74859,-5.000319,-14.854008,-4.48629658.781956,-0.660524,-15.543563,-5.62208658.815252,1.921565,-16.011945,-5.32728958.8493,2.805955,-15.797507,-9.58298558.881491,-5.499528,-12.105067,-13.98248758.915287,-15.002005,-12.825747,-12.66338558.948621,-34.447657,-15.744683,-9.65062358.981907,-35.949324,-12.123174,-7.41869959.015853,-26.181979,-6.125484,-2.33113859.048723,-15.792568,0.823186,1.26538159.081927,-2.236713,14.423036,4.20900759.115301,1.237398,19.284187,4.51652359.148607,0.98914,20.31418,5.34853859.181912,-8.305333,19.839363,4.54031759.215242,-19.750475,13.385412,2.21740959.2485,-36.764429,0.913869,-1.44824459.282091,-36.662223,-11.84394,-4.30208559.315239,-29.113784,-15.514681,-4.73141159.348351,-10.940695,-17.098951,-4.03766659.383268,-4.553186,-15.741839,-2.37139259.41534,0.307816,-15.995484,-2.65227259.449405,3.570331,-15.73331,-3.63976559.482187,3.996365,-13.896293,-6.51141459.517119,-10.425923,-14.350459,-10.97122259.551834,-23.814478,-14.017504,-12.4642159.582325,-36.488787,-14.634332,-12.12676559.615262,-36.041354,-8.836266,-7.46089859.648503,-20.638007,-0.070931,-2.57281159.682034,-10.025778,5.033241,1.61165559.715227,-0.977767,12.569708,4.78662959.748577,2.698062,17.452109,5.95743559.781879,0.47347,18.655388,5.11240259.815256,-6.452903,18.146003,3.21328359.848493,-21.517608,9.887358,-1.27570659.881949,-34.309387,-3.025631,-5.04461359.915217,-31.74286,-13.282308,-5.61265859.948342,-29.840899,-15.715502,-7.80028859.981947,-11.764779,-15.112441,-6.1440460.015417,-3.019346,-14.544546,-5.78833960.048307,1.336162,-14.0401,-5.29795960.082163,5.586321,-14.106541,-5.75317360.115288,5.639145,-11.854864,-9.3796260.148291,-3.917503,-10.543692,-14.10878660.182112,-22.313559,-15.437166,-14.58105960.21846,-35.550825,-16.821214,-14.10235160.24823,-35.318728,-10.286307,-9.23611260.281936,-24.145488,-3.505835,-2.80610560.315374,-7.495166,7.471672,3.30381760.348542,-0.949036,15.491936,5.43084260.381896,0.781286,18.847978,5.39836960.415219,-2.318717,19.183178,6.22350160.448309,-8.674353,18.116224,4.33904760.481898,-16.982978,13.356681,0.90219760.515359,-33.185119,2.957394,-3.63138560.548623,-36.382091,-12.540079,-6.69637260.582027,-32.382883,-15.339749,-7.98883860.615285,-15.727324,-16.438278,-6.21137960.648591,-2.46417,-15.724032,-3.5457960.681683,1.938475,-14.912967,-3.3319560.715259,3.362327,-14.92015,-3.97481660.748625,2.375731,-12.268776,-6.94268560.782704,-6.612273,-10.912263,-11.72691960.815113,-18.087343,-11.043649,-14.03665860.849104,-32.567992,-14.462991,-14.84622660.881978,-34.478932,-7.742227,-10.04029460.915295,-22.04929,-1.985463,-3.69513360.948329,-12.433384,4.163516,1.83252860.981916,-1.229466,15.647864,6.08657761.014574,2.165184,18.690853,5.75407161.048438,0.360789,18.906488,5.43967161.08193,-7.569389,17.119153,4.49347861.114878,-16.647628,11.664967,2.96502561.148566,-33.479766,1.002458,-3.62285661.182262,-41.099136,-11.204665,-7.14739661.215969,-27.170819,-14.264714,-6.31328661.24843,-11.721083,-15.187412,-5.77980961.282476,-4.441852,-13.043328,-4.93148361.315433,1.188614,-16.025862,-6.44257861.34921,3.542946,-15.313262,-7.83859761.381917,4.843194,-12.55235,-10.89221161.416343,-13.313134,-12.663684,-15.45362761.449211,-27.531908,-14.076164,-13.67706661.481941,-35.819583,-13.645192,-12.92750561.515739,-32.093474,-6.599553,-6.7517461.548564,-18.581913,-0.8383,0.19872661.581954,-7.716937,7.939456,3.37759161.615301,0.602911,15.040313,5.68688161.648722,1.317905,17.437444,5.97703961.681929,-1.627966,17.141749,6.02312961.715719,-8.296953,16.360014,4.3207961.748748,-22.180377,8.560923,0.40089361.781907,-31.637811,-3.198019,-3.76381961.815816,-35.433056,-11.727667,-6.46457561.85028,-26.58796,-13.71717,-6.47864261.883083,-9.336074,-16.075992,-5.21326161.91488,-3.911816,-15.407986,-3.92453661.948592,0.258882,-16.179395,-5.11793861.983576,4.596283,-14.045936,-7.2127962.016125,3.620761,-12.53948,-9.54632262.048569,-7.733996,-12.658596,-12.39417762.082123,-23.322751,-12.671316,-14.73429362.116403,-43.338243,-14.309008,-14.52404562.149384,-34.812935,-4.336802,-6.13491262.181538,-20.470108,2.628179,-0.97986262.215366,-5.030397,8.34424,3.94548662.248487,2.780067,14.676082,6.07475562.281934,4.329619,17.139355,5.17046362.316233,-0.5447,17.829658,3.82292862.348465,-8.480415,17.3508,3.19876862.382893,-20.080587,11.600471,1.60686662.41634,-38.286298,-6.818032,-4.77151562.45036,-37.956485,-15.748124,-7.02887962.48269,-30.295364,-15.362644,-7.544162.515259,-13.351443,-14.018402,-5.31382162.548704,-2.066719,-11.838702,-4.08809662.582549,1.800953,-11.335902,-3.15776562.615084,6.196565,-13.982338,-5.5825862.649939,6.474452,-10.951769,-11.81939962.681864,-2.625186,-12.15385,-15.79885362.715402,-19.785192,-15.443601,-16.69656162.749191,-32.231295,-16.365102,-13.19027862.781878,-35.878243,-10.50299,-6.56708162.815277,-26.430985,-6.010708,0.05357262.848652,-14.44234,2.871798,4.39501362.881909,-2.342361,16.109662,8.1727562.915248,2.175509,20.204491,8.15000462.948598,0.11328,20.25522,6.26420362.981966,-9.941529,18.23953,3.78387263.015257,-19.378163,9.834235,0.45087463.04913,-29.277493,-0.57418,-2.29327863.083755,-37.854727,-10.543692,-3.44956963.115742,-29.449283,-15.106156,-4.21693863.150341,-13.879683,-14.550981,-4.96500363.182143,-4.812966,-14.373355,-5.92376663.215259,1.822801,-15.89687,-6.86322463.249051,3.712791,-17.217169,-7.77395163.281917,1.479969,-14.32517,-9.15949563.316534,-7.027382,-9.58927,-10.28750463.349556,-18.056217,-11.599872,-9.55021363.38189,-39.66002,-13.929214,-11.18311763.415234,-41.325097,-9.287739,-8.64098263.448324,-21.500848,-0.083351,-2.22638863.482526,-9.701652,4.252553,1.82893663.515264,-3.058103,10.517505,4.40159863.550381,2.78276,16.713321,5.80794263.581894,1.2784,18.47836,4.95662363.61513,-6.434347,18.149295,2.99600163.648604,-21.367067,9.299262,-1.278463.681889,-27.360866,-3.425776,-4.67589363.715331,-30.49394,-11.669905,-5.66174163.748439,-29.056919,-13.18489,-5.33581963.7819,-11.301634,-14.34612,-3.77833563.815258,-3.490571,-13.659558,-2.66259763.848611,0.262324,-15.197289,-4.40324463.882917,3.772349,-16.654961,-9.70374763.915628,3.157017,-13.225593,-12.52227163.948571,-5.595,-12.22538,-14.878163.982053,-22.536677,-13.904074,-15.9929464.015232,-41.879075,-15.700987,-15.99398864.048344,-35.226848,-7.106544,-8.58696164.081924,-22.882053,-0.521655,-2.28070864.1153,-7.692545,7.725766,2.68698964.148434,-0.219676,14.621014,4.50500164.18229,2.086621,17.633626,5.33073164.215557,-2.587476,19.726233,5.98856164.248296,-9.012546,17.525134,4.33126564.284156,-23.558289,9.063574,-0.188764.315019,-34.706539,-4.015519,-4.15723164.349047,-33.172848,-17.417541,-5.23076964.381963,-26.111796,-16.707785,-5.951364.415047,-10.029968,-16.201094,-4.50051264.448645,-0.596926,-15.119624,-3.39225664.48191,2.762708,-14.785022,-3.28645864.515264,4.578027,-14.158168,-4.63444264.549943,0.370366,-12.372479,-11.35266264.581924,-8.967054,-11.965749,-15.46335464.616895,-21.646301,-12.82874,-17.86063464.648292,-35.531072,-15.009188,-16.95050664.68219,-35.687449,-8.179932,-9.22234564.715715,-25.413263,-2.467911,-2.36705264.748247,-13.325854,6.945677,3.85270764.781925,-2.409251,19.326836,8.69111364.816294,3.018598,19.712914,9.06701664.849298,1.011137,18.101858,7.5901964.882105,-10.13816,16.24464,4.36643264.915303,-19.184525,9.287141,0.91671364.951558,-27.645637,-1.572747,-1.82414864.981905,-29.073679,-11.21529,-3.12259965.015509,-31.494154,-16.342506,-6.59117365.048314,-16.319162,-14.080204,-6.39184965.081896,-2.178053,-13.694874,-5.75407165.115246,1.91932,-15.094933,-7.33370265.148612,1.646821,-16.432891,-8.12725865.181869,0.198127,-15.344537,-8.36743565.21521,-12.689273,-12.844153,-13.02252865.248605,-23.043966,-12.963419,-14.35300365.281871,-35.245403,-13.079093,-13.97829765.315211,-34.060979,-6.301016,-8.28034365.34855,-19.272665,-1.227521,-0.12629965.381963,-9.011798,6.026121,2.71078265.415329,0.257685,13.588477,4.28053665.448495,2.526123,16.949757,4.71210765.482202,-2.629975,18.480305,4.77076765.514936,-9.247934,17.680763,3.2396265.548374,-20.921281,12.219544,0.98105965.583824,-37.15365,-6.699515,-4.53687565.615336,-32.976068,-14.4172,-5.09743765.648263,-28.15547,-14.500551,-5.92122265.681953,-9.539738,-15.600576,-4.30268465.715238,-2.622942,-14.717085,-4.36463665.74807,1.07728,-13.273778,-5.37427765.7819,6.635168,-14.723818,-7.23688365.81539,3.712492,-13.065475,-10.53725865.849804,-7.031572,-11.751311,-12.77816165.883446,-25.214537,-14.461644,-11.51966465.916167,-33.204423,-13.368951,-10.100665.949549,-30.346243,-8.271364,-6.06413165.981906,-21.492169,-3.736734,-1.72882566.015341,-8.492537,7.89995,3.77938266.049444,-0.753752,15.613146,6.1314766.081891,2.57341,17.743912,7.63837566.115726,-2.900978,17.864375,6.73572866.149366,-10.1425,15.314459,4.70567266.18404,-22.45572,6.959893,-0.56460366.215248,-32.296689,-3.561652,-4.08315766.251645,-30.467454,-12.753021,-7.60111366.281852,-24.644996,-13.150921,-8.06171466.315313,-10.881736,-14.258429,-6.56049666.349536,-3.640065,-13.790645,-3.99337266.381895,0.882295,-15.030138,-6.15421666.41525,4.886291,-12.547112,-7.64406166.45003,-0.079311,-13.651776,-12.77232566.481953,-14.457753,-12.300501,-15.38778466.515926,-23.924316,-12.828142,-14.64735166.548913,-35.74536,-12.530951,-14.21413566.582609,-27.251776,-3.467676,-5.972166.615273,-15.977377,0.369169,-0.57687466.649014,-6.565884,7.619968,4.9328366.681983,1.725084,16.205583,7.00643266.715269,0.622664,17.94623,6.21287666.748641,-3.154922,17.260266,6.13730666.782311,-13.164689,15.055876,3.46303766.816684,-28.550976,6.13162,-3.00213766.849154,-33.596039,-6.814889,-5.32953466.882272,-32.791708,-12.89174,-5.96252366.915315,-21.323372,-14.011368,-6.77119466.948578,-9.489458,-15.399007,-5.33581966.982686,-3.111975,-14.183458,-2.70644267.015357,4.040659,-15.162871,-4.25973667.049705,7.72816,-12.335517,-5.94022667.081978,4.287869,-11.605708,-9.18508467.115378,-14.468827,-11.80623,-14.42857367.149399,-24.468567,-13.119796,-16.45264367.182491,-35.024979,-14.372158,-15.49717367.215484,-29.797801,-7.710951,-7.65049667.248946,-17.167488,0.679529,-0.50265167.281976,-6.21108,9.79877,4.66377267.315631,1.85662,16.437081,8.23829367.348863,2.420175,18.306271,8.69664967.382857,-4.127302,18.096172,6.70235867.415854,-12.699299,15.122318,4.14406267.450333,-34.233967,1.476826,-2.06731767.482532,-32.227105,-10.348408,-2.8246667.515286,-29.797951,-12.994694,-6.1774167.548714,-23.730827,-12.494587,-6.96273767.582278,-9.934197,-13.260161,-5.01049567.616132,-3.62106,-13.263453,-3.96733467.648572,1.45423,-15.296053,-4.67275167.68222,6.468765,-12.650815,-5.94202267.716173,4.159026,-12.77008,-10.30875367.756612,-11.034521,-10.225551,-15.09942267.781907,-19.142026,-12.307683,-14.8487767.816187,-36.025791,-15.426392,-11.55138867.848563,-30.669621,-9.288637,-5.85672667.881982,-19.461514,-3.106139,-2.20334367.915241,-7.502349,7.880497,4.04799167.948575,-1.643977,15.914527,7.88573467.981961,2.089315,17.865422,8.7342168.017586,-3.562849,18.036315,6.65043268.050057,-10.474258,16.004463,4.04185668.083097,-22.210754,7.184657,-2.14602968.117,-32.578317,-10.809907,-7.75045768.149756,-32.168295,-15.778502,-8.71266168.18207,-23.790834,-15.48191,-6.60314568.216113,-9.541085,-15.697545,-3.53696168.24849,1.765039,-15.832822,-2.93509768.282063,3.507032,-15.135337,-3.24859968.316286,5.34764,-15.147009,-4.33395968.348938,-1.649514,-12.240344,-10.53890468.38299,-20.143437,-12.791629,-15.91078668.415767,-30.828991,-15.155089,-13.53490568.448596,-33.521666,-10.092669,-9.00955368.481972,-20.137451,-4.103509,-2.69402268.515228,-11.564108,0.858352,1.18816568.548845,-3.265957,8.416967,4.79815168.581894,1.676151,15.839407,6.09016968.615436,0.409273,17.287501,5.45149368.64949,-5.730577,17.498498,4.90724168.682088,-16.336221,12.21266,2.45100268.716007,-31.211927,0.7542,-3.02548168.748825,-29.380597,-11.802339,-3.75349468.7824,-26.668917,-14.382782,-6.12234268.815333,-15.537726,-13.726448,-6.06233568.849056,-6.645643,-13.956898,-4.52011568.882132,0.104301,-13.390949,-3.37744168.915236,4.076274,-14.258429,-3.48922568.948698,6.022231,-13.204943,-5.78564568.982158,0.778293,-12.211613,-12.56866169.015517,-17.97945,-12.827842,-18.61917469.049493,-28.227598,-14.7943,-15.53533269.082172,-33.565362,-13.044525,-9.70479469.116004,-25.297888,-6.56304,-5.06990369.149205,-12.159387,1.751571,2.51923969.183022,-3.555666,10.275981,6.37598769.215483,0.643614,15.493432,7.46823169.250423,0.907734,17.196967,7.55726869.281893,-7.798642,17.97945,6.09450869.315701,-14.993625,16.017482,3.22450669.349747,-28.355842,6.612572,-3.834969.382519,-33.572096,-10.344218,-6.39035269.41523,-33.486949,-15.651754,-7.71259769.448462,-20.85888,-15.815464,-7.11746769.481901,-5.770382,-16.83139,-5.41617769.515235,1.258348,-16.267984,-5.07992969.548708,4.47178,-15.773713,-4.71524969.583533,6.931012,-14.537812,-7.1626669.615744,-1.994292,-11.166357,-10.71189169.650328,-15.613895,-11.652696,-13.75188869.681898,-25.045141,-13.366856,-12.6945169.716047,-31.935451,-13.102138,-9.30734269.748823,-25.514571,-8.383896,-3.2523469.782204,-17.435349,-2.372888,0.51357569.815469,-4.992089,10.344667,4.11817469.850202,1.278549,15.550296,6.5214469.881925,3.206399,17.337183,6.94014169.915548,-4.874469,18.538217,5.31816169.949768,-13.638907,14.353751,3.97556469.982174,-29.903449,3.831009,-0.63927570.01456,-32.083597,-10.40632,-4.27350370.048919,-31.958945,-16.39548,-6.35189470.082035,-19.845049,-16.936589,-3.98544170.115376,-7.349414,-15.690811,-0.94963470.150152,-0.418851,-14.252593,0.00149670.18221,2.263649,-13.529069,-1.36953270.215476,6.934155,-14.814502,-5.44386170.250754,-4.364187,-14.031271,-13.63666270.282224,-19.961322,-16.240001,-16.8438170.315472,-29.445392,-16.620992,-14.186970.350242,-34.856032,-12.861362,-10.81768970.382191,-23.604529,-4.162019,-4.23040670.415411,-15.331369,1.862755,0.52195570.449464,-5.956986,10.928873,5.93843170.481943,3.656974,17.51002,8.86963770.515574,2.938987,18.032274,8.2272270.549815,-4.86564,18.241924,6.88148170.582589,-15.177237,13.849754,3.29603670.615565,-34.651321,3.638868,-2.30719570.648564,-37.003558,-12.119732,-2.53270770.682503,-34.586675,-16.944819,-5.1131570.715253,-14.231493,-16.647479,-6.20299970.748794,-6.524133,-15.315207,-5.09788670.782117,-0.407927,-15.41876,-4.89167870.815761,5.183931,-14.083945,-4.82987670.849777,7.991382,-13.006815,-7.32442470.882081,0.836055,-11.03497,-11.92100670.915581,-12.535889,-11.012973,-14.89156870.949576,-31.867214,-16.703744,-15.66896370.982,-35.991373,-11.071782,-11.07148371.015747,-24.507325,-4.065949,-4.21559171.048588,-10.369508,4.013274,3.51421571.082115,-1.384048,11.490932,6.76670471.115261,2.442173,16.312727,7.74776471.149349,1.07713,16.50427,6.97366171.182873,-7.026485,16.329787,5.49758371.215895,-15.258343,12.780705,2.91504571.249762,-31.711286,2.846658,-3.29588671.282897,-34.418177,-14.779635,-3.66685171.315313,-29.007238,-15.956876,-3.82711871.349567,-14.150536,-15.866193,-3.27029771.382032,-2.756124,-14.66456,-2.92866271.415626,1.497627,-12.030994,-2.49424971.449954,6.283956,-13.198508,-4.86085271.482178,7.329063,-8.918271,-7.0074871.515664,0.977617,-9.201246,-10.65622471.550182,-20.529067,-13.734529,-15.54086971.585883,-35.730396,-17.586189,-14.53182771.616631,-28.679669,-8.637541,-9.72215371.64983,-19.092046,-3.425477,-3.227271.682068,-10.054809,3.012013,2.25661671.71557,-0.893518,13.608081,6.80516371.749994,2.384411,16.89424,7.73818671.782369,-0.57014,18.249556,7.10519771.81625,-10.676276,17.98813,4.0903471.849964,-18.586851,11.289962,0.29584471.883061,-33.487697,-0.566099,-3.89206371.915938,-36.581266,-13.633071,-4.02494671.949936,-27.021625,-15.923207,-4.89856271.982409,-9.718711,-15.970793,-4.99104172.016348,-2.83304,-15.107802,-5.56656872.050079,2.115053,-15.288272,-5.42470672.082418,5.545319,-14.427974,-6.20584372.116365,5.445806,-11.740686,-9.68923172.150294,-7.978214,-9.847853,-14.26576172.180973,-24.753936,-14.612484,-14.90069672.215513,-40.855817,-17.749599,-13.76400972.249813,-31.281062,-8.46605,-6.58773172.282205,-16.113403,0.202467,1.94640672.315532,-4.536127,8.694854,5.66712872.35016,0.4193,16.57161,6.13685772.384492,1.32853,18.924895,5.79567172.415604,-3.874256,17.860484,5.71157272.450414,-13.6627,16.238205,4.00923472.485475,-34.080134,2.329641,-3.32401972.516485,-32.074619,-11.849926,-3.08174772.549482,-30.091551,-15.690213,-5.3099372.58251,-25.28038,-14.349711,-7.62999572.616515,-7.173434,-14.37126,-4.65090372.648794,0.278186,-14.800436,-3.25608172.68229,2.137799,-13.828205,-4.20047872.716941,7.060154,-13.758472,-9.30569672.747751,2.415088,-11.664967,-11.31480272.783918,-11.893172,-13.26046,-13.7632672.815404,-30.726635,-17.090571,-16.13704672.849346,-35.61577,-12.119582,-13.30206172.882537,-25.809518,-4.408481,-6.06757372.915824,-16.237756,-0.215635,-0.10250572.95023,-6.422825,13.649232,6.31807572.983108,-0.604707,19.78579,6.83868373.01488,2.083179,19.51344,7.12210673.049114,-6.755481,18.917263,5.68777973.082486,-14.144401,15.382696,3.9480373.118473,-28.368562,5.880968,-2.07240573.149002,-37.723939,-8.761445,-6.33812773.183176,-35.022735,-16.603484,-6.86771373.214654,-19.254109,-15.648612,-5.50102473.249532,-6.564387,-15.140424,-4.98475673.282304,1.763243,-15.494031,-5.57913873.315476,5.287035,-17.168386,-6.59820673.349031,4.820598,-14.994822,-7.7033273.382682,-6.78092,-12.573749,-14.83365673.417888,-22.875468,-13.601496,-17.46348273.449616,-36.094178,-15.487596,-18.06893773.484067,-34.276615,-6.908117,-13.29622573.515786,-20.721208,1.633652,-3.33584173.549296,-10.295135,6.011905,3.15821473.583032,-2.881525,12.738805,5.67790273.615798,2.86267,17.031762,4.39456473.650176,-0.802236,17.498648,4.66182773.682602,-9.534351,16.702697,4.57114373.715975,-24.778029,7.900998,0.97567273.750738,-32.817297,-2.987023,-2.28654473.784327,-30.219495,-10.379983,-3.8136573.815856,-30.412535,-12.952645,-6.58997673.850081,-13.140895,-15.631403,-5.47229373.882131,-5.195753,-15.27645,-3.51660973.91579,1.868442,-15.985907,-4.1744473.950218,8.014278,-15.186664,-5.74224973.982198,6.621102,-13.60823,-9.408874.016095,-5.918229,-12.569858,-12.4725974.057072,-26.466899,-17.661758,-13.78316374.081036,-37.965463,-17.520645,-14.51925774.115472,-33.096231,-9.314675,-9.56876974.149118,-22.825188,-3.251592,-4.12341174.182393,-10.035355,4.767624,2.05280274.215687,-2.798622,15.923356,4.72362974.25073,0.965646,20.583986,4.80563474.283093,-2.749988,21.716334,5.62956874.315743,-10.328207,19.063913,4.40683574.34918,-20.235318,12.374873,0.63613274.382235,-34.749786,-1.688421,-4.02030774.415914,-39.071474,-16.212018,-6.05964174.449169,-28.330852,-15.406639,-6.21601874.482452,-14.493967,-15.465449,-5.66443474.514864,-6.024775,-13.952708,-4.89422274.548584,-1.669566,-15.551943,-6.35832974.581946,3.246953,-15.651156,-6.4458774.615401,6.09376,-15.141322,-8.83312474.648644,-5.797766,-12.268028,-13.22065574.683236,-21.807018,-16.112206,-13.84571474.715275,-37.585071,-20.104081,-13.8347974.74899,-32.651492,-7.546793,-6.99266574.7819,-19.654404,-0.886485,-1.17469774.815264,-9.523876,8.063959,2.66199874.849142,-2.516994,19.521072,3.76531674.882361,1.412031,21.834103,4.98954574.915238,-3.019346,19.148461,4.25494874.948348,-12.192758,18.495569,2.32305774.981786,-22.637386,9.609172,-3.74346875.015261,-32.745319,-2.804758,-6.24085975.048564,-35.982544,-12.98407,-4.88943475.082279,-26.592599,-15.46934,-3.54698775.115228,-12.445355,-16.731279,-3.37519775.149361,-3.505386,-19.140829,-6.26225875.181895,-0.982855,-17.56898,-7.94275.215253,1.30743,-16.274119,-6.56558475.24859,-0.390418,-12.71576,-6.98832675.281895,-7.260975,-10.154022,-9.3670575.315775,-24.02727,-13.68395,-11.09063775.348293,-41.455586,-16.697609,-12.1412875.381932,-31.835938,-8.443753,-7.18061775.415236,-14.197075,1.100175,-1.38838775.448369,-4.005193,8.5289,2.24359775.481908,0.438753,17.463332,2.50936375.515721,0.714096,20.304453,1.7349675.548602,-5.087411,19.944861,2.38201675.581967,-13.209282,16.991657,2.20783275.615337,-23.984173,8.573643,-0.28267675.648781,-35.651684,-8.21869,-3.77459475.681979,-34.817574,-14.276087,-4.44379775.715238,-23.852188,-13.297572,-3.73763275.748145,-10.268499,-13.820723,-4.3920275.78176,-4.13673,-12.432336,-6.80351775.815214,-0.882145,-15.565261,-9.66723475.848571,1.811578,-17.119752,-8.22901575.881886,-4.091986,-16.720205,-12.62417875.915101,-16.388447,-14.97866,-13.92008675.947748,-27.230377,-14.8365,-11.2657275.981867,-35.409113,-9.301207,-9.9078676.01428,-25.584305,-2.926417,-5.84894476.048582,-17.164794,2.438282,-1.16751476.081872,-8.255951,12.843106,1.77326976.115209,-0.34358,20.203743,1.01876976.148578,2.096947,21.788163,2.21800876.181432,-4.004595,20.253724,3.9691376.21523,-14.391162,14.418547,3.4536176.248746,-30.407746,4.38783,1.33900576.281897,-37.746685,-9.640448,-0.60036876.31529,-32.954519,-13.070862,-3.95192176.348248,-14.750754,-14.171636,-5.18378176.381915,-7.949931,-15.411428,-5.04655976.415339,-0.807623,-15.902107,-8.91901976.448226,3.141454,-15.099871,-9.70614176.481938,1.486403,-16.557393,-11.07986376.51536,-7.670847,-15.537726,-13.42072876.547824,-17.905676,-13.026119,-11.94479976.583251,-31.366808,-14.476159,-10.27583276.615084,-38.136206,-10.683459,-5.76634176.648629,-20.674819,-1.105712,-2.06656976.681909,-11.518467,6.328849,1.93503376.715231,-5.554597,17.104039,3.51421576.7522,1.145966,22.479363,4.22292476.781072,-2.877035,21.233137,5.32459576.815204,-9.30824,18.426434,4.31031576.848546,-18.248957,12.463013,2.03888576.881871,-34.265541,-3.954465,-4.34308776.914323,-35.112969,-13.691282,-5.38849376.948395,-30.465658,-15.832673,-6.22589576.981881,-10.796888,-15.97648,-5.96611577.01521,-1.992197,-14.56804,-5.98871177.048556,2.218457,-13.301612,-6.39768577.081897,4.423745,-15.504805,-7.46867977.11523,1.185022,-12.246629,-8.2438377.148608,-9.093952,-12.990055,-9.91429477.181905,-21.557713,-12.763047,-9.86386477.215269,-36.104653,-13.809799,-12.1749577.248631,-33.459415,-6.684251,-8.06740177.281898,-22.726574,-1.153448,-2.15126777.315247,-8.552693,8.776708,2.73517477.348679,0.618474,19.053587,3.2649177.381899,5.625677,21.692242,4.77809977.415497,-1.322844,21.712144,3.06648377.448549,-11.255245,19.249021,1.1568977.482112,-26.203976,9.103379,0.0252977.515243,-41.673915,-6.989822,-2.05145577.548814,-38.455544,-14.593031,0.38817477.581958,-18.849026,-14.757338,-1.56451777.615222,-7.681621,-14.647501,-3.07950277.647701,-2.917289,-14.285215,-3.79210277.681892,3.494612,-15.979173,-7.48035277.715233,6.019238,-12.450144,-11.11083977.747682,2.345354,-11.091685,-13.55585577.781908,-12.077383,-11.913374,-11.84618577.816172,-31.235122,-14.951425,-11.23100277.848546,-45.769941,-14.191539,-5.40899477.881059,-29.973482,-2.909657,-0.51028277.915226,-16.067462,4.300589,2.77228577.948672,-4.628007,13.825063,4.42868377.982139,4.886141,21.036805,5.50850778.015828,3.688399,20.379424,5.03428878.048551,-4.96201,18.977719,4.10365978.082031,-18.485842,12.603528,2.79278678.115252,-30.416425,2.008807,-0.11552478.148604,-36.818151,-9.877632,-3.48982378.182039,-34.478782,-15.30997,-4.69489878.215246,-15.298298,-14.062696,-3.18963978.248576,-4.127003,-14.030373,-3.70845278.281907,0.181517,-13.816384,-5.1299178.315652,5.597095,-15.395566,-8.18247678.348353,4.742634,-14.092625,-7.97088178.381985,-2.287741,-12.667874,-9.49439678.415237,-14.028727,-11.600321,-10.67253578.448788,-31.518546,-16.250476,-12.29870578.481913,-39.78991,-10.731943,-7.91446678.514366,-27.268985,-5.004509,-3.1894978.548677,-11.147502,1.471888,-0.44144778.581902,-3.175423,6.945079,1.65490178.615117,0.132434,14.222515,2.65825778.649173,-0.076767,18.024643,3.13831278.681787,-5.840863,19.451338,3.64649978.715227,-11.900505,15.981268,3.47485978.748648,-23.601835,6.070266,1.29396378.78177,-33.622525,-10.510472,-1.31416478.81523,-34.422068,-16.678155,-2.53061278.848439,-23.017629,-17.75768,-2.88227378.881984,-8.519622,-15.245923,-4.32961978.9153,-2.658257,-12.036231,-3.43520378.948433,4.120419,-13.370747,-3.44837278.981922,7.519259,-11.991039,-5.58781779.014374,3.720273,-10.357985,-10.03535579.048704,-8.149555,-10.009766,-12.10521779.082315,-20.906766,-13.847509,-11.69788879.115969,-38.317872,-15.382846,-11.53028879.14855,-30.049202,-8.232008,-6.20718979.181895,-18.916365,-1.731369,-0.7793479.215243,-5.650817,5.845353,4.30028979.248556,-0.630595,14.979409,4.43182679.281918,1.738552,19.198592,4.54929579.315604,-2.281756,20.849153,3.4784579.348556,-11.837954,18.8387,1.59055579.38277,-24.058845,6.758474,0.06015679.415312,-37.371231,-11.524003,-4.12371179.449745,-35.011511,-18.699532,-3.52603779.481969,-13.493005,-17.19188,-2.79308679.515241,-3.375346,-16.482871,-2.32754679.548341,1.299499,-13.130271,-3.6292979.581969,3.24396,-12.703489,-4.27245679.615301,6.323462,-12.91284,-5.87318679.64873,-0.385331,-12.360507,-7.79250779.681193,-21.4793,-17.690191,-10.09027479.715818,-38.075451,-20.592067,-11.38423779.748535,-38.963881,-13.391547,-7.72726279.782087,-21.379488,-1.92381,-3.82442579.815239,-10.056006,4.376907,-1.27331279.848451,-3.332848,13.52458,1.25475679.882036,1.002458,20.925471,1.36249979.915303,0.660374,21.723068,2.23491779.949205,-7.155776,21.114919,1.68737479.981918,-16.751331,16.05594,1.37417180.015419,-37.842157,-4.064901,-3.33045380.048583,-40.542015,-15.908691,-3.4661880.081473,-30.012689,-16.480926,-2.69028180.115292,-9.818373,-13.368053,-2.85788180.148593,-3.569134,-11.085549,-3.98603980.181008,-0.081855,-11.500958,-6.26390480.215212,3.540103,-16.931501,-8.62317580.248638,-0.692697,-17.027572,-12.22089180.281952,-15.873825,-18.190896,-17.12723480.315297,-27.528316,-17.472011,-15.21928680.347629,-40.944854,-11.658383,-13.30550380.381921,-33.709019,-2.923275,-6.44332680.415236,-20.607181,3.499849,-1.08176980.44856,-6.184444,17.293637,1.96062280.48226,0.315298,23.237305,2.37767780.515233,1.598935,24.44223,5.48561180.54887,-3.201611,21.416001,4.23489580.581928,-15.210757,17.815442,2.50307880.615428,-32.362682,6.873101,0.08095780.648663,-40.180628,-9.962778,0.28551980.682073,-37.084964,-15.675398,-1.2824480.715278,-17.329551,-13.835837,-1.49388680.748081,-6.280963,-14.968036,-1.93697880.781881,0.798345,-15.899413,-6.6719880.815274,4.772862,-15.462905,-8.09972480.84864,6.245498,-14.996169,-9.86640880.882033,-3.329855,-13.137753,-12.24139280.915295,-24.099548,-14.427226,-12.83053680.948877,-42.117157,-16.60932,-11.80802680.981935,-44.545114,-7.871818,-4.7315681.015478,-22.637237,2.797874,-1.81501981.047942,-9.489159,6.333638,1.66582581.081933,-0.964299,13.061734,4.16381581.115291,0.002394,20.123834,2.59570781.148924,-0.713946,21.731747,2.3049581.181911,-8.9687,21.172831,2.28265481.21559,-15.857214,16.623835,1.66058881.2483,-34.787047,0.862841,-6.2236581.28189,-40.076775,-11.938664,-7.04204781.315288,-33.698993,-16.207079,-4.54675181.348305,-12.587216,-16.573256,-3.21941881.381917,-5.426203,-13.471756,-3.72251881.415233,-0.744474,-13.501535,-4.71046181.448204,4.651202,-14.326965,-6.0726681.481984,4.658235,-15.120971,-9.09604781.515229,-8.28558,-14.774547,-12.14532181.548392,-22.98366,-16.32006,-11.35565581.581896,-36.770265,-14.160862,-13.16169681.615238,-37.043363,-7.111482,-10.70934781.648328,-25.261824,-1.07698,-5.78504781.681998,-10.367114,6.151971,1.25535581.715361,-3.076958,15.481311,3.17108481.748293,1.068002,21.702567,3.78671581.782933,1.337958,21.878397,4.43496881.81528,-8.83477,20.540889,2.65631281.848219,-14.918055,15.685125,1.11139881.881999,-32.083448,6.138653,-2.66095181.915555,-45.161643,-13.552563,-4.19224781.948254,-36.342585,-17.162849,-3.5288881.982099,-15.059168,-17.033258,-4.21948282.0143,-4.029735,-16.281901,-3.35020682.048589,0.663367,-17.525434,-6.59536382.081957,5.202636,-16.497237,-9.24404382.115303,-0.607251,-16.584629,-12.34614282.148789,-14.411813,-14.311253,-13.21152782.182413,-28.879143,-15.794813,-12.62298182.215521,-44.092743,-16.48766,-13.08343282.249036,-30.185227,-2.567574,-4.94420382.281951,-17.175868,3.501795,0.43635982.31528,-8.076679,11.891227,4.30163682.348772,-0.683569,21.812554,2.68728882.382479,-0.9848,22.643671,2.19361682.415277,-4.952433,20.682451,3.16090882.448674,-11.293703,19.937977,3.73568782.482764,-23.464313,10.364869,0.45835682.518748,-36.817402,-3.040745,-3.97197382.549412,-42.802073,-13.905272,-5.38250782.583255,-27.955846,-15.752913,-8.46515282.616555,-12.819612,-17.368009,-6.4793982.655877,1.56751,-19.44251,-5.67999782.681205,4.691157,-17.66131,-5.76544382.716347,5.894136,-17.480092,-6.7560882.74835,-4.243724,-14.285215,-9.90217382.782153,-18.531334,-13.052606,-10.30830482.815288,-32.435707,-13.656266,-11.36657982.848163,-41.224686,-12.014084,-11.96500182.881924,-32.093474,-5.034438,-5.6117682.915233,-15.634097,4.204219,0.50175382.948328,-7.356747,15.334811,1.16003282.981888,-0.950233,22.828181,1.91243783.015091,0.152187,21.5631,3.35798883.048258,-5.153703,20.35608,3.10030383.08188,-11.321985,16.780361,2.19421583.115284,-25.106345,7.482596,0.66755783.148547,-35.574618,-8.916625,-1.33436683.181626,-39.549733,-14.246906,-3.27299183.214776,-27.100637,-16.394432,-1.90016683.247944,-8.786286,-18.053075,-2.03080483.281895,1.912736,-17.533963,-6.03869183.315306,6.114411,-16.427503,-6.42641683.348155,1.855423,-18.819247,-8.97214283.38177,-8.447045,-13.536851,-11.46908483.415609,-19.201285,-14.233588,-11.28382683.448291,-37.553945,-18.777646,-9.1406483.482513,-34.154207,-8.31072,-4.70193183.515308,-23.128066,-1.073389,-1.90615283.548313,-13.513057,4.852771,0.5237583.581998,-3.991576,18.134032,2.84261783.616406,1.989952,25.102305,2.93270283.648164,0.210248,26.267724,3.73314383.682193,-9.942726,24.451209,3.92184283.715386,-26.093241,14.974321,1.93054483.748448,-40.856565,0.403886,-3.15881383.783024,-45.982135,-13.368353,-5.30050383.816047,-27.661948,-15.49837,-6.16992883.848745,-13.045124,-15.203424,-6.41115383.882069,-6.287847,-13.917991,-6.26734683.914783,2.010603,-17.085483,-6.90437683.948769,3.401085,-18.063999,-6.36446483.981949,-0.723224,-15.786882,-9.73262884.01535,-12.331626,-14.532874,-11.22172584.048832,-25.154381,-13.170974,-10.18739384.082363,-41.651169,-11.345479,-11.79246384.115286,-36.275845,-5.473789,-5.29631384.148441,-17.381776,5.380113,1.18382584.182041,-3.914211,14.492171,4.2372984.215429,2.813886,23.039028,3.93261784.248211,3.822629,25.419698,4.40264584.282411,-7.536917,21.852509,2.61830384.315379,-20.235318,16.690725,1.54925384.349233,-33.569103,5.780258,-0.8086784.382055,-37.533893,-11.875215,0.13228484.415337,-35.567136,-15.903454,-0.09741884.44879,-18.00459,-13.866813,-1.09628484.481963,-4.089742,-14.369165,-2.58134184.51533,-0.747018,-12.843854,-3.40452784.548455,2.55231,-13.420129,-5.11629284.581609,3.602055,-11.367477,-7.68581184.615382,-1.080272,-11.248511,-11.21992984.648492,-8.62512,-11.202121,-10.45270984.682003,-19.059274,-13.876091,-10.22570184.715541,-43.000649,-14.979708,-11.11517984.748575,-34.333928,-8.497175,-5.33626784.781916,-23.257058,0.022746,-0.44264484.815282,-7.554874,10.268948,3.31997884.848194,-0.113729,19.485307,3.97107584.88199,2.80371,21.423184,5.19620284.915792,-2.323356,19.874678,5.39911884.94861,-12.726534,17.924831,4.04933884.983073,-20.799621,9.359268,1.58741285.017599,-34.350538,-6.55915,-1.42579885.049063,-39.80667,-15.972738,-3.50718285.082226,-28.981798,-16.405955,-3.45390985.115258,-11.589846,-15.315058,-4.33680285.148245,-1.64712,-13.448112,-3.56075485.181993,3.320727,-16.48766,-6.17067785.215235,5.540081,-15.461857,-9.37662785.248399,-2.573859,-12.866301,-10.76546385.281887,-15.834917,-14.393556,-10.30127185.315347,-27.356377,-15.525156,-10.58783785.34862,-39.850066,-12.436376,-12.09414385.382342,-27.089414,-2.638953,-5.63405785.415295,-15.623173,1.501517,-0.7375985.44837,-7.628648,7.002991,1.99309485.482012,-0.913869,19.24932,2.77168785.515905,0.830369,21.875255,4.02180485.548307,-3.509875,20.29742,3.64979185.582121,-12.54382,15.919166,1.6682285.615234,-28.325913,6.059342,-2.01224985.648394,-35.138409,-8.403499,-2.97235885.682123,-34.900177,-15.402599,-3.19891785.715313,-18.45337,-14.385625,-3.93710685.748133,-8.688569,-12.818116,-4.79979885.781887,-3.150134,-11.798897,-4.83511385.815206,1.863953,-15.299196,-4.2411885.848168,3.877698,-16.490503,-5.72264685.881884,-1.402154,-14.953371,-9.6268385.915224,-13.913652,-17.788207,-12.97254785.948193,-34.707287,-17.959847,-14.76227785.981891,-42.805215,-11.201373,-11.40024986.014987,-30.799661,-1.998033,-6.7140386.04831,-12.842956,8.378658,-0.86164486.081918,-4.521911,18.508588,1.1904186.115218,0.62027,24.374142,2.80909786.148421,4.176984,22.373865,4.66422186.18193,-7.884837,20.724351,2.43289586.215312,-17.563742,14.720526,-0.3058786.24834,-34.701601,3.46184,-2.92417386.281977,-36.879205,-14.057608,-3.30546386.315228,-31.361121,-16.185082,-2.87269686.348467,-15.217042,-17.284359,-1.85976386.381923,-2.291931,-16.143631,-5.18767286.414648,2.165333,-15.570648,-7.48065186.44824,5.274914,-16.524622,-6.77732986.482005,0.856856,-13.068169,-9.72215386.51525,-11.329168,-11.069388,-14.41330986.548274,-25.847078,-15.525306,-15.61449386.581924,-44.724087,-16.14378,-18.18625786.615471,-31.081888,-1.77686,-10.0290786.648451,-16.933596,4.720038,-3.55850986.681996,-4.866838,10.478298,3.35020686.714905,0.902347,18.213791,4.02509686.748608,-0.194087,20.512606,3.98349586.781925,-5.050599,20.018635,2.86311986.81565,-11.674544,20.935796,0.93781286.84858,-23.00895,12.211164,-1.89792186.881963,-35.836044,-3.238124,-5.26997686.915115,-41.790187,-13.37778,-7.37440486.949201,-24.44238,-16.380964,-5.41542986.981906,-11.916816,-17.054358,-5.40300887.015258,-4.151694,-14.839492,-7.20770287.048347,5.4482,-17.50598,-8.49343487.081902,6.042283,-15.716999,-8.35381887.11524,-2.676514,-15.753212,-13.04108487.14868,-23.025411,-17.285107,-17.64065987.18192,-42.076604,-18.023296,-17.87140887.215738,-41.502723,-7.090831,-13.11829987.248593,-26.791325,2.032451,-6.89569787.281911,-8.920216,11.11877,2.39024787.315263,-1.842853,20.300263,4.13029587.348564,2.066419,24.419335,3.26999887.381994,-2.909059,23.49514,3.93605887.415264,-13.275724,22.447938,2.3426687.448613,-20.080737,17.936802,0.30332687.481918,-37.673809,6.890908,-3.27897687.514882,-45.409451,-13.879982,-3.4913287.548255,-37.949152,-14.530031,-8.79436687.581924,-16.336072,-14.647201,-6.94777287.615266,-3.590683,-18.251052,-7.77529887.648637,1.31192,-17.813496,-8.56406687.681946,4.988198,-19.087556,-7.77110887.715209,-2.766599,-16.854135,-11.94390187.748269,-14.782628,-14.570883,-15.24442687.781881,-28.027974,-15.840155,-15.28438187.815241,-43.919008,-12.527958,-15.27914387.848179,-32.309708,-0.086494,-6.37778287.881909,-17.993367,5.798066,0.86478787.915242,-6.639358,14.473915,4.8238987.948596,-1.039719,24.623897,6.04318187.981988,0.970584,23.27292,6.9488288.014514,-6.736776,22.207013,4.67873688.048403,-14.646004,21.01376,1.99653688.08191,-29.145209,13.0969,-2.51923988.115848,-46.898997,-0.241374,-7.51387288.148277,-44.255405,-11.689508,-6.01564688.181941,-25.361487,-14.541553,-3.43969388.216432,-13.464274,-17.000037,-4.78992188.248369,-4.055324,-20.133112,-5.7962788.281924,3.29828,-22.039264,-9.19600888.315644,0.534674,-20.625587,-10.79853488.348257,-13.894946,-20.442573,-12.57868788.381972,-27.393638,-15.470836,-14.25438988.415249,-42.507426,-9.517591,-14.4424988.448513,-39.613331,-1.172004,-7.061888.481926,-24.799877,3.261618,-0.40358788.514325,-9.292677,13.441378,4.20960688.548348,-1.52546,23.413884,4.74083888.582008,0.804032,25.755347,4.23743988.614646,-2.595557,24.607585,4.8533788.648376,-13.88477,22.423397,2.85892888.681898,-24.634671,14.437851,-1.34843388.715368,-41.173509,3.826819,-5.71845688.748902,-42.857441,-11.544654,-6.64040688.782005,-30.503368,-12.126017,-6.14104788.815257,-14.520454,-13.09705,-5.49234588.848327,-6.22365,-18.191195,-7.10504788.881904,-2.417033,-18.822539,-10.0961188.915261,0.990038,-20.874593,-11.26751588.948213,-6.343813,-18.633839,-14.00792788.981924,-16.66379,-15.081315,-11.31480289.015646,-28.233883,-12.538732,-9.77527689.048598,-46.625151,-9.154557,-12.95952889.081974,-35.537806,-0.785925,-5.08905789.115265,-21.196325,4.88659,1.47413389.147618,-8.651757,14.616375,5.12871389.181924,-1.710718,24.11945,6.57875389.215495,1.184125,23.262894,7.67428989.248258,-5.449697,21.944989,5.49174789.281929,-13.672577,19.516583,1.62123289.315444,-23.346844,12.108509,-2.12597789.349504,-35.606342,1.677946,-6.51814789.3819,-43.082653,-7.667854,-6.59117389.415424,-31.436541,-12.345543,-6.2070489.448527,-18.324826,-14.199619,-7.65678189.48193,-8.290369,-16.687583,-7.35016289.517238,0.304823,-18.915317,-8.01951589.548093,4.513979,-19.189463,-11.78258689.581926,-2.752981,-15.686172,-13.57096989.615329,-16.962477,-12.518231,-12.17390389.648298,-24.678815,-9.674117,-12.58287789.682573,-45.114655,-9.268286,-14.37245789.715226,-39.871914,-4.744879,-6.78810389.748606,-21.588988,2.099191,0.25005389.781026,-7.054617,9.503375,3.32207389.815234,0.758839,16.922373,4.22127889.848547,0.273098,22.284977,5.69630889.881971,-3.895804,22.059316,3.94428989.915207,-9.03589,20.970214,2.10158689.948553,-19.310075,11.231302,0.3604989.981885,-37.298953,-0.634486,-2.12822290.014509,-46.823577,-14.644358,-1.45467990.048508,-34.650423,-16.299409,-4.27425190.082018,-11.087196,-13.390649,-5.23929990.115241,-4.560668,-12.268627,-5.4778390.148102,1.785091,-15.651605,-6.03465190.181909,6.977102,-19.359757,-10.75184690.214764,1.852131,-15.9889,-14.50668790.248263,-7.991382,-14.328013,-15.74647890.28206,-17.886223,-11.242675,-13.6043490.314732,-38.352589,-15.107802,-14.27129890.348552,-44.683384,-8.695901,-7.04489190.381926,-30.198845,-0.347172,-1.32703490.416129,-11.124307,8.928895,2.24254990.448426,-3.882037,18.969937,4.54705190.481877,2.404463,23.232965,6.44976190.515212,-3.061096,22.136681,4.73664890.548305,-9.700005,20.883421,2.09470290.581893,-16.224288,15.101817,0.42543590.61523,-29.843143,4.439906,-2.12014190.648436,-44.491542,-13.150473,-2.89933290.681885,-34.645634,-15.975282,-4.61633590.714577,-16.467608,-15.442404,-4.41027790.748274,-4.507096,-14.595126,-3.36517190.781908,1.248321,-17.51017,-4.8656490.815241,4.92879,-16.163084,-7.18166490.848572,3.439543,-13.774783,-11.57428390.88193,-7.420794,-10.539802,-12.55025590.915367,-20.168577,-11.964552,-10.92558190.948712,-40.195592,-16.134652,-8.99758190.981853,-38.782663,-8.237545,-5.72369391.01435,-24.830254,-0.658728,-2.21486591.048625,-11.34114,5.093397,0.64361491.081229,-0.571935,16.635058,4.13134291.115404,-0.073026,23.257656,5.81033691.148309,0.224764,23.005059,5.95174991.182338,-8.426544,22.806483,4.19748591.214495,-21.656178,11.733952,-0.26651491.248958,-32.14525,-2.645837,-4.4509891.281983,-37.122225,-14.499504,-3.67059291.314793,-27.521433,-16.394432,-2.18314191.348607,-11.881201,-14.817495,-2.16234191.381906,-4.09902,-11.457113,-2.55126391.415244,0.090534,-11.226962,-3.70411291.448538,3.984543,-13.036445,-5.98003191.481873,3.821282,-12.558784,-9.78904391.515209,-10.734936,-15.454824,-14.23149391.548291,-25.330211,-17.228392,-13.43000691.58191,-39.011168,-16.202889,-13.1474891.615209,-36.785528,-8.875024,-7.44174491.648561,-21.810759,1.246077,-1.64622291.681894,-10.814546,8.360103,4.41641291.715247,-2.343259,18.298788,7.80133691.748454,3.347812,22.848533,6.4334591.782002,-1.670165,23.039178,4.9495991.814649,-11.406384,20.475644,2.77662591.848564,-21.907428,11.646262,1.18427491.881917,-35.555613,-4.532086,-2.24494391.919133,-38.338224,-14.09876,-1.49433491.948553,-30.477929,-14.339835,-0.43276791.981878,-10.589034,-14.199619,-1.94939992.015206,-6.527126,-12.367391,-3.92678192.048553,-3.047778,-14.732498,-5.76394792.081871,3.412458,-16.6593,-5.89937492.115222,3.503141,-15.454525,-9.73861392.148143,-7.986893,-14.37949,-12.70648292.181875,-21.57537,-15.711761,-10.90133992.21521,-42.370054,-13.661952,-11.95961492.248234,-33.339251,-6.409207,-7.77350292.28189,-20.924124,-0.34777,-2.80565692.314486,-6.598506,7.973874,2.66588992.34838,-1.121873,16.627426,5.14951392.382002,-0.302428,21.141406,6.44811592.415334,-4.778848,19.699895,4.8657992.4483,-12.932742,17.672383,3.31683692.482737,-21.916257,10.816043,-1.05243992.514704,-32.982802,-0.604408,-4.28682192.548483,-37.568909,-14.972375,-3.28496292.581911,-28.324267,-14.967138,-3.15701792.614413,-13.141494,-15.674051,-2.53614992.648668,-3.38223,-13.266147,-2.14393492.681919,-0.43995,-14.479601,-3.82173192.71527,2.711829,-16.258108,-6.24639692.748719,-0.097418,-17.238867,-10.10568792.781637,-9.240003,-16.162037,-15.24756992.816225,-22.579774,-15.85482,-14.33190492.848287,-37.25436,-16.732027,-12.20981792.882207,-31.492807,-7.403585,-6.05515292.915244,-18.970087,-1.884154,-2.1669892.948428,-9.112208,4.442301,2.29118392.981943,-2.412843,18.261527,4.84020193.014517,0.262025,21.713491,5.47962593.048255,-2.081384,21.194679,5.7584193.081969,-11.723328,19.926006,4.45472193.115242,-28.577164,8.038819,-1.05962293.14964,-39.702219,-4.805634,-2.16847693.181912,-36.623764,-16.707336,-1.07323993.215699,-26.022609,-14.943045,-5.79342793.24852,-10.439691,-15.536679,-5.60816993.281917,-5.914787,-14.108337,-5.12093193.315279,-0.704669,-16.179096,-8.68946793.348488,5.763648,-16.124327,-9.42421493.381929,5.256059,-17.99636,-11.19089893.415274,-6.325108,-15.168707,-13.89644393.448572,-27.299063,-17.821278,-13.32525593.481883,-42.460438,-17.923185,-10.22644993.515209,-34.114701,-7.411217,-4.79426193.54844,-16.468955,1.209414,-0.01122393.580986,-6.206292,8.860359,3.31638793.615219,-0.504895,15.768925,4.93058593.648549,-0.812262,21.240021,5.94621293.681884,-4.77795,20.145532,5.13065893.715219,-14.209945,19.108506,3.21148793.748619,-25.489431,10.120652,-2.41987693.781918,-34.816227,-9.663642,-5.25710693.815234,-33.40674,-16.456085,-6.22933793.848596,-31.606835,-16.679203,-6.0939193.881912,-10.358734,-16.691025,-4.48824193.915246,-2.292081,-14.585548,-3.17542393.948672,2.833788,-16.247782,-5.38939193.981899,5.835925,-13.483428,-8.30997294.01432,4.730962,-11.904695,-11.74831894.048571,-5.941723,-11.838553,-12.89054394.081896,-20.890305,-13.734679,-11.86982894.115598,-41.803805,-17.898793,-7.47975394.148057,-36.997423,-9.68983,-2.79248794.181903,-21.950226,-2.110863,-0.33998994.215256,-7.577021,7.196329,4.79949894.248441,-1.363846,15.646068,6.6764794.282032,0.973727,20.070112,6.93520294.31564,-1.267925,20.216313,6.42716594.348572,-11.358199,18.763579,3.54204994.381936,-19.011089,12.536787,-0.29719194.415233,-28.50324,1.406793,-4.02883794.447766,-37.50142,-13.54987,-3.56524394.481923,-31.942783,-15.14656,-3.93695694.515269,-18.098417,-14.085591,-5.70558694.548741,-6.228888,-15.443451,-4.27544994.581589,0.948736,-16.027957,-4.00968394.614436,6.392597,-15.960318,-5.82664794.648735,7.351359,-14.826025,-9.18104494.681918,-3.382529,-11.350567,-10.99426794.715335,-17.774739,-14.054017,-11.60436294.748331,-33.658141,-18.450526,-14.02812894.782018,-36.523803,-8.646968,-9.26259994.815236,-24.632875,-1.724336,-3.77968294.84784,-13.786455,2.550065,0.43905294.881908,-4.951535,12.12033,4.16456394.91524,-1.106161,19.577487,5.89892594.948636,-1.266428,20.922628,6.59431694.981914,-7.627451,20.777624,5.25740695.015315,-15.235597,13.368951,1.42699595.048331,-27.434041,1.558531,-4.47477395.082088,-37.881064,-10.420985,-5.58826695.115238,-30.077783,-13.616012,-5.12362595.148531,-18.295197,-14.455359,-4.14121995.18194,-10.271342,-13.517846,-3.04523495.221756,0.312305,-14.125845,-4.04724395.24858,7.184508,-17.663853,-6.41953395.281929,4.328871,-18.168898,-11.3785595.315241,-6.946276,-16.415831,-14.36572395.348647,-22.666118,-14.825426,-12.94172195.381907,-39.724516,-17.0578,-12.5981495.415274,-37.787837,-9.120588,-6.68918995.448505,-20.810695,0.656184,-1.8400195.481909,-9.77333,7.061501,2.30120995.51524,-3.036106,14.770357,4.82224495.548644,0.084848,20.700109,6.82865795.581903,-1.071443,20.963929,4.23190395.615376,-9.809245,19.926904,2.29297995.648654,-15.637389,14.880644,1.30862895.681723,-38.535752,-3.015006,-2.62039895.715638,-48.454087,-19.400759,-1.12217295.74785,-31.892952,-18.01327,-5.57449995.781909,-8.276452,-13.347852,-4.92160795.81526,-0.267861,-14.510428,-3.26176795.848618,3.377591,-15.441656,-2.94168195.881919,6.582195,-17.58574,-5.99230295.915328,1.709671,-15.833271,-10.64185895.948384,-7.709305,-13.897191,-12.53005395.981983,-17.995163,-14.948133,-11.27619596.014917,-37.925957,-18.694444,-9.59106596.048238,-39.056959,-12.223883,-5.3311896.081921,-26.224477,-4.735152,-1.01128796.114511,-9.650773,7.485739,1.32643596.148409,-1.312518,18.953327,3.40347996.181899,2.385907,24.621203,4.90694296.215364,1.557484,24.510617,4.1409296.248639,-11.866536,22.175588,3.04777896.281877,-23.686533,12.948455,0.75958896.315235,-38.343162,0.362286,-2.93584596.348389,-37.314067,-17.149531,-4.76148996.381907,-29.484599,-17.183051,-5.98676596.415258,-15.898815,-15.728372,-5.12197996.448253,-5.949355,-12.815422,-2.69656696.48199,0.957266,-12.632259,-2.77482996.514893,8.213602,-13.972162,-5.72459196.548659,8.286927,-13.625739,-9.6102296.581931,-5.801657,-13.600449,-16.30135496.615321,-20.017288,-14.374103,-18.27559496.648643,-31.871104,-15.175142,-18.37555596.68191,-37.919523,-9.665139,-14.66919996.71545,-29.181572,-2.035294,-7.98958796.748609,-18.101858,4.644767,-0.04923396.781756,-6.626788,18.191046,5.68284196.815263,-0.337894,24.50089,7.84233896.848693,0.357048,24.755732,7.6317996.881913,-8.535933,24.221656,4.61932896.91538,-19.909994,17.448068,1.50585796.948643,-37.1538,6.58818,-2.98941796.98199,-50.004986,-10.903284,-3.79240197.014594,-47.207711,-18.470429,-4.78228997.048045,-16.434537,-15.450784,-7.30661697.08192,-4.687416,-13.698315,-6.40187597.115238,5.299904,-17.452558,-6.70759597.148594,8.080569,-17.260865,-8.18606897.181893,6.373892,-15.331518,-12.23660397.215279,-4.922205,-11.665865,-16.17789997.248936,-23.436031,-11.997174,-15.96884897.281526,-36.149546,-12.864206,-14.19138997.31562,-37.587166,-6.009062,-10.17512297.348635,-25.285618,-1.742891,-2.37707897.381906,-14.813006,3.457201,1.40305297.415263,-6.233676,11.639079,4.70163297.448231,-1.034182,17.249342,5.92286897.481932,0.772008,18.435263,6.52024297.51524,-5.858072,18.182217,4.52146297.548652,-12.998286,15.965256,1.99937997.581942,-29.482653,5.144575,-4.51577597.615251,-36.198928,-9.065669,-4.84723497.648707,-36.329566,-13.826709,-3.95566297.681345,-18.136875,-15.005746,-3.71698197.715237,-10.041491,-12.600235,-4.95931797.748545,-4.539718,-9.860273,-5.63256197.781351,-0.359442,-11.93612,-5.05074997.815211,4.417609,-14.398195,-5.74135197.848656,3.489973,-14.267557,-9.62039597.88192,-4.45921,-12.542623,-12.74853297.915312,-23.044116,-14.486185,-12.99768797.948576,-36.098368,-16.774076,-13.25252997.98191,-33.386838,-10.422631,-10.87470398.015242,-21.78502,-0.007632,-4.29430498.048485,-10.27643,6.091216,0.67294498.081339,-4.368227,14.087537,3.94488798.11543,-0.382936,19.401358,5.9303598.150442,-1.588909,18.982507,5.24483698.181536,-8.802746,17.301568,3.22450698.215258,-17.48922,9.981035,0.85371398.248582,-31.693778,-5.630017,-2.97594998.281893,-33.301392,-15.277946,-4.26856598.315244,-29.09014,-16.650471,-5.62702498.34822,-12.334021,-14.535717,-4.26796698.381456,-4.502307,-11.526996,-3.32731198.415262,2.052203,-10.914657,-2.47748998.447974,4.962459,-11.637732,-2.88870798.482027,8.98546,-13.680508,-6.87848898.51998,0.874064,-10.165994,-12.01827498.548584,-8.371475,-10.983194,-14.67772898.581907,-27.344256,-17.548179,-14.41360998.615467,-31.686744,-14.190641,-12.1370998.64849,-24.342867,-6.866067,-7.30796398.681923,-12.830686,0.523002,-1.26403498.715273,-6.062634,5.037879,2.57251298.748405,-1.642631,10.852256,4.73904298.781993,-0.950083,14.873761,5.5361998.814908,-2.874491,15.189807,4.75714998.848706,-8.663279,15.087152,3.56344798.881893,-18.400097,8.847789,1.12366998.915301,-35.143047,-6.601199,-5.07633898.947815,-37.390236,-12.520176,-5.38714698.981393,-23.332328,-13.877588,-3.5876999.01526,-9.950807,-12.110005,-3.56389699.048744,-4.930137,-9.203041,-4.77615499.082076,-0.718137,-8.279445,-5.45628199.114776,5.198596,-10.617616,-6.84436999.148679,9.197205,-11.546599,-12.49802999.182019,0.70003,-10.116013,-16.27172599.215259,-14.66022,-11.434816,-14.59901699.248603,-39.350708,-16.553652,-9.23895699.281966,-37.028549,-11.716594,-4.07343199.315238,-24.340024,-2.399225,-1.68333499.34847,-12.129608,3.676129,0.61937299.381971,-1.941617,12.305738,4.3207999.414604,2.042327,17.354242,5.59110999.448466,1.560776,17.450912,4.9371799.482207,-8.047199,17.7074,1.58262499.515245,-12.494438,14.584202,0.05566799.553053,-29.039411,0.444739,-2.88167499.626786,-29.497019,-15.884748,-3.22121499.648582,-18.502901,-15.819055,-3.68570699.681724,-8.467247,-15.250262,-2.57954599.715207,2.252725,-15.83791,-2.22474299.748581,6.930713,-15.466945,-3.6044599.781894,8.109002,-12.102822,-7.13093599.815225,0.987045,-7.292849,-12.00405899.848574,-11.870277,-7.749709,-13.05440299.881916,-24.209386,-13.135059,-11.10769799.915521,-38.217163,-12.56462,-6.52907199.948333,-29.356205,-5.912542,-0.85610799.98191,-17.713535,-0.829471,1.074287100.014292,-8.53698,3.945336,2.662597100.048599,-1.751271,11.91502,