time_tick,gyr_X_value,gyr_Y_value,gyr_Z_value0.028026,0.026133,-0.40381,-0.0099230.057994,-0.203382,-0.256938,0.2227850.087993,-0.332742,-0.29827,0.1470110.127971,-0.333225,-0.487953,-0.1118360.157969,-0.52673,-0.445048,0.009450.187938,-0.606963,-0.62716,0.1723250.227946,-0.001549,-0.438565,0.2859590.257914,-0.220673,-0.266599,0.1898860.287913,-0.282526,-0.442449,0.1062110.327891,-0.28374,-0.71779,0.2170790.35789,-0.612846,-0.659361,0.1117980.387858,0.092998,-0.242622,-0.1021680.427836,-1.104582,-0.446763,-0.203870.457835,0.05791,-0.003775,-0.0738930.487834,0.115133,0.57233,0.1956150.527812,-1.274589,1.198554,-0.404040.55778,2.586609,-0.006143,-0.5849630.587779,-1.24808,-1.206035,-0.5493960.627757,-1.153242,-0.790766,-0.7183640.657756,0.744808,1.342012,-0.7043090.687724,1.68345,1.302063,0.2891960.727733,-1.063319,-0.397752,-0.3964670.757701,-1.629358,-1.426936,-0.5317630.7877,-0.643227,-0.152419,0.7844460.817668,-1.560697,0.64837,0.8390070.857646,-0.609368,-0.833248,1.2288230.887615,2.566115,-1.108491,1.0383470.927593,3.73094,-1.828295,0.753540.957591,3.576709,-0.847152,1.1310570.98759,6.643074,-1.911528,1.7950971.027568,6.110695,2.068678,2.498941.057567,8.035831,2.50227,2.6780931.087535,8.686695,1.40833,1.3749261.127513,6.492978,1.583749,-0.7465131.157512,0.195939,-1.367398,-0.7300611.187511,-2.672887,0.612407,0.5595711.227489,-0.902024,1.253846,1.336431.257457,-3.709634,1.957363,2.6043391.287456,-4.000327,2.848522,2.9747531.327434,-2.517812,3.707182,2.7649081.357433,-2.270991,1.935604,1.4957181.387401,-1.658652,0.114526,0.2206051.42741,-0.643741,-0.518388,-1.2437641.457378,1.017614,-0.071836,-0.8008431.487377,1.604981,0.25034,-0.6049081.527355,1.04228,-1.414991,-1.9824071.557353,1.823657,-2.541673,-1.4556371.587322,2.336222,-3.098956,-1.0340381.6273,1.876208,-3.366942,-0.4332111.657299,3.232633,-1.958438,0.0063361.687297,1.809889,-0.657014,0.0727511.727275,1.220649,-0.597671,0.8670471.757244,0.989293,0.200631,0.543421.787242,0.153499,-0.357693,0.6503651.827182,-0.657,-0.195706,0.3848431.857181,-2.292264,-0.012423,0.2880011.887149,-0.800724,1.395389,1.8777471.927158,-2.385113,2.552318,2.5765461.957126,-2.848843,2.835603,2.8447321.987125,-3.885629,1.772645,3.0429682.027103,-3.028591,0.199516,1.2451722.057102,-1.652931,-0.362037,-0.3518662.08707,-0.152148,0.748339,-0.2287582.127048,2.03607,1.003624,0.0985392.157047,2.446406,-0.394881,-0.9503472.187046,1.853866,-2.296084,-2.9360552.227024,1.851431,-4.160542,-1.6634132.257022,2.426391,-3.568137,-0.8379582.286991,2.710097,-1.871295,0.1813822.326969,3.352805,-1.250018,1.0958462.356968,2.034566,-0.235173,0.7712892.386966,0.814596,-0.595063,0.5930092.426944,0.965285,0.562983,0.5728422.456913,-0.137962,0.97934,-0.0054962.486911,-3.220592,1.295854,0.2129572.526889,-6.257722,1.796393,2.3060652.556888,-4.312799,5.144281,4.456922.586856,-1.856527,5.860812,4.5819452.626865,-1.741877,3.169835,2.4254252.656833,-2.657845,1.264355,0.8394122.686832,-0.545608,0.460264,0.4667842.72681,1.131698,0.371469,-1.1109292.756809,1.622259,-1.403347,-3.3382552.786777,1.372025,-3.229924,-5.2229512.82672,3.14835,-2.70231,-3.2345932.856719,2.452318,-2.978856,-2.6281272.886718,2.156714,-2.202852,-2.2909592.926696,1.929923,-1.539701,-0.2327792.956664,1.564324,-0.524595,0.1563222.986663,1.067054,-0.035764,0.3911573.026641,-0.051757,0.258278,0.7759613.05664,-1.055984,0.321887,0.242383.086608,-2.888449,0.387134,1.4136593.126616,-5.711675,1.499883,2.9580633.156585,-4.492712,3.658319,5.4173113.186583,-4.816987,3.144424,4.5237463.226561,-2.805374,1.563372,1.5846663.25656,-3.041545,0.740572,-0.1764173.286528,-1.691619,0.826908,-0.5461493.326507,0.638257,0.399209,-0.8555993.356505,1.550668,-1.13562,-2.3755863.386504,1.996738,-2.760276,-3.9413833.426482,4.231696,-2.707779,-3.6650943.45645,3.490705,-2.684352,-1.5352773.486449,3.085945,-2.210165,-1.8608513.526427,1.767951,-2.351409,-0.179943.556426,1.308285,-2.073966,0.9192083.586394,1.914986,-0.865831,0.8620053.626403,0.382217,-0.013802,1.0731943.656371,0.306143,1.178805,0.7116223.68637,-1.301767,0.490952,0.4216793.726348,-4.416873,0.049305,1.3499923.756347,-4.802697,2.412801,4.0811373.786315,-5.029376,3.079557,3.8768693.826249,-4.886097,0.609689,1.8892043.856248,-3.864206,0.528681,0.2425323.886246,-2.63584,0.74475,-0.52113.926224,-0.059924,1.291497,-0.3816013.956193,1.329786,0.594211,-1.5990313.986192,2.707794,-1.104816,-3.1939714.02617,4.065376,-3.002185,-4.1558414.056168,4.375764,-1.344692,-2.3928814.086167,3.9731,-1.947109,-2.210144.126145,2.07687,-2.406359,-0.5012444.156113,1.888432,-2.130635,0.4716134.186112,1.925341,-0.81058,0.371934.22609,1.099573,0.063114,0.8542414.256089,0.773387,0.386195,0.1602924.286057,-1.021508,-0.258077,-0.5588124.326035,-3.31385,2.2649,2.2105084.356034,-4.630561,3.326011,4.3442854.386033,-4.466223,2.800258,4.8177134.426011,-5.313737,0.074857,1.6854414.45601,-3.002954,-0.261782,0.7695444.485978,-1.965565,0.071152,-0.7075114.525956,-0.164177,0.307118,-0.7747284.555955,1.06091,0.04619,-1.0387694.585953,2.376862,-0.932236,-2.3176874.625932,3.916793,-2.326299,-3.4464684.6559,3.906559,-2.448011,-3.050834.685899,4.322406,-2.572274,-1.4084574.725877,2.78652,-3.799883,-2.7582384.755875,1.731356,-3.738253,-0.7176324.785844,1.836034,-1.561995,0.8719184.825835,1.148957,0.092309,0.7620144.855803,0.841352,0.539762,0.5033024.885802,-1.46163,0.221209,-0.4970254.92578,-3.234925,2.214545,1.9832454.955779,-5.322719,4.269443,3.1815864.985747,-5.581952,4.391084,6.989085.025725,-6.395014,2.309385,3.0389945.055724,-3.555879,0.105042,0.5863965.085723,-2.952664,-0.571136,-1.1740385.125701,-1.256543,1.23457,-1.136155.155669,0.500415,0.502043,-0.8545385.185668,1.599161,-1.285059,-1.9331325.225646,3.365828,-3.275281,-3.0256435.255645,3.737429,-2.994025,-2.659675.285613,4.721813,-2.545679,-1.04185.325622,3.633461,-2.878672,-2.6844915.35559,2.118959,-3.127378,-0.9280865.385589,2.172213,-2.447973,0.0414775.425567,0.399076,-0.503501,0.4324935.455565,0.880174,1.212679,0.967395.485534,-1.199922,0.555637,0.2190295.525512,-3.803603,2.394729,2.1994515.55551,-2.842765,3.963651,3.121065.595488,-5.587038,2.522839,5.7753435.625487,-6.051391,1.94121,3.6691835.655456,-4.834949,0.841866,1.9362515.685454,-3.558378,0.001518,0.3013155.725432,-1.378396,0.45124,-0.4234735.755431,1.191735,0.251844,-1.1295675.785399,2.377288,-0.615722,-2.980335.825351,4.104143,-3.394012,-4.3301925.855319,3.39391,-2.565829,-2.7356385.895297,5.072344,-3.268596,-2.3055455.925296,2.809103,-3.93309,-2.5184315.955295,2.876852,-3.113452,-0.6721225.995273,2.805489,-1.023571,0.0230426.025241,0.653472,0.015489,-0.202146.05524,1.189191,1.24281,0.6187816.095218,-1.460059,0.749947,0.3150186.125217,-2.958664,0.990212,1.4052696.155185,-3.516013,2.00763,2.596496.195193,-4.135251,4.100808,6.8018986.225162,-4.839472,2.951001,4.5946526.25516,-3.722029,-0.135187,2.6531326.295139,-4.313755,-2.032761,-0.6478196.325137,-2.230293,0.617249,-1.2509346.355106,0.791341,2.078802,-0.9458166.395084,2.529239,-0.080958,-2.1083666.425082,2.680187,-1.882444,-3.9570736.455081,3.106338,-3.462805,-4.2260126.495059,4.892745,-2.483249,-2.3840276.525027,4.469538,-2.085926,-2.296126.555026,3.636971,-2.336659,-1.7616246.595004,1.265821,-4.033551,-0.2733716.625003,0.460155,-2.756571,0.1460776.654971,0.973564,-0.196841,1.188626.69498,0.337372,0.282561,0.6221556.724948,-2.505247,-0.749732,0.0237636.754947,-3.948533,0.434717,1.5226476.784915,-3.966428,2.841706,2.6770136.824893,-6.545064,2.252791,4.0429256.854861,-5.613941,1.934067,2.0294646.894839,-4.948493,1.505395,0.6540376.924838,-3.05092,1.996318,0.5321126.954837,-0.536927,1.668915,0.1995576.994815,1.121108,0.269046,-2.3367817.024783,2.036251,-1.835711,-3.646657.054782,3.810563,-2.668029,-3.983067.09476,4.235505,-1.758304,-1.9004717.124758,2.874668,-2.845733,-2.94087.154727,2.016884,-3.396718,-1.9388487.194735,2.275588,-2.706537,-0.5139667.224703,2.634142,-0.737291,-0.4208217.254702,2.574904,0.535512,0.0094547.29468,0.911932,-0.01678,-0.0305297.324679,-1.425063,-0.098116,0.9910427.354647,-2.460483,1.838309,2.6473737.394625,-5.261403,1.949188,4.5234197.424624,-5.86483,1.881877,4.6179357.454623,-5.112765,1.685019,2.7720237.494601,-3.444202,1.257937,1.0390217.524569,-2.399681,1.379164,-0.3788887.554568,-0.102674,1.124047,-0.4739797.594546,0.880046,-0.462626,-1.3816957.624545,2.140036,-2.540539,-2.0856717.654544,2.789653,-3.454978,-3.4989767.694522,3.833811,-2.988033,-1.7162417.72449,3.35987,-3.52621,-1.9965237.754489,2.431768,-3.698002,-1.0524857.794467,2.069569,-2.869781,0.8761437.824441,1.733128,-1.324405,1.500057.85441,0.570262,0.813876,1.5139637.894388,0.796146,1.528034,1.3814997.924386,-1.890578,-0.188336,-0.0819797.954385,-3.939058,-0.182249,0.5234697.994363,-3.073002,1.721795,2.6868418.024332,-4.472938,1.310021,3.3483548.05433,-4.832018,-0.128159,2.9323018.094308,-4.41012,0.761378,2.1990348.124307,-1.603926,2.824957,2.1275058.154306,0.810677,2.33464,1.9460558.194284,1.076923,0.373912,-1.3282458.224252,2.170463,-0.773787,-3.9764098.254251,3.115416,-1.811387,-4.7930918.294229,5.287333,-1.498437,-4.682678.334207,3.543237,-1.630988,-4.5386768.354196,2.722887,-2.404709,-2.1208528.394174,2.479309,-3.338086,-0.5530378.424173,2.279809,-2.296348,-0.7133278.454172,1.440365,-0.700227,0.2980588.49415,1.162524,0.227711,0.8057268.524148,-0.088639,-0.167978,0.4540198.554117,-2.034243,0.191,0.9997228.594095,-1.090123,1.513412,2.5046078.624094,-5.550221,1.080381,3.1373758.654092,-6.28037,-0.47604,5.1936198.69407,-4.804776,1.61085,3.6156788.724039,-3.231098,1.676958,2.7509868.754037,-1.920395,1.005313,1.4772698.794015,-0.31357,0.173091,-0.6416968.823982,1.251509,-0.583446,-2.5497948.85395,2.126056,-0.871445,-4.1813018.893959,3.751314,-2.2967,-4.1209788.923927,4.625972,-1.389225,-5.8798328.953926,2.661545,-2.565889,-4.845738.993904,2.0437,-2.638671,-0.5611899.023903,2.073493,-1.859953,0.2093599.053871,1.994116,-1.855147,0.255639.093849,0.692894,-1.448468,0.648079.123848,1.252806,-0.10134,0.665829.153847,-1.113966,-0.715292,-0.4780789.193825,-3.499338,1.765642,1.3864649.223793,-3.562292,3.218415,2.5140869.253792,-5.815341,2.445925,4.5697069.29377,-4.759383,1.953092,3.2672629.323769,-3.943399,1.448928,2.2958379.353737,-3.246156,1.922367,1.1886869.393745,-0.619004,1.858948,0.2231249.423714,0.942046,0.618388,-0.8557239.453712,1.869188,-1.215874,-2.3959519.49369,3.427387,-2.684092,-3.8901499.523689,5.468611,-3.021816,-3.8861369.553657,3.799619,-3.362376,-3.9788719.593636,3.584354,-3.495605,-1.8486629.623634,3.133126,-3.158502,-0.5025389.653633,2.316154,-2.992912,-0.2133799.693611,2.476858,-1.121082,0.055469.723579,1.153867,-0.355602,0.6362719.753578,-0.344972,0.203327,0.8323989.793556,-3.867168,0.365189,1.0619129.823502,-4.697743,1.338914,1.9915059.85347,-5.071103,3.971255,4.1285649.893479,-4.656073,2.696745,4.3598029.923447,-4.268057,1.237515,2.3450859.953446,-2.87997,1.351427,0.8090589.993424,-0.100077,1.507557,-0.45126310.023423,0.857819,0.692749,-1.91822210.053391,1.64,-0.541923,-3.36613210.093369,2.727123,-2.441164,-4.52382410.123368,4.665139,-2.767428,-3.96678610.153366,3.914313,-2.435522,-2.87283210.193344,2.904646,-3.496342,-2.17662510.223313,1.602991,-4.726154,-1.20553310.253312,1.324577,-3.702888,-0.10870310.29329,1.61286,0.895515,0.99556810.323288,0.996121,0.966727,1.09232210.353257,-1.204624,0.19936,0.32838810.393265,-2.680698,1.91291,2.45176710.423233,-3.902149,1.924122,2.60992210.453232,-6.456064,2.228031,5.00902510.49321,-5.286358,3.028756,3.94267410.523209,-3.913907,0.554655,3.11090510.553177,-4.492231,-0.63091,1.12189710.593155,-1.680298,1.129545,-0.02900510.623154,1.045613,1.713303,-0.74928910.653153,2.108121,0.260206,-2.42538710.693131,2.602536,-2.354472,-5.01765310.723099,4.428304,-3.377185,-4.78011810.753098,4.671165,-2.408159,-1.76682210.793076,4.630727,-2.446096,-2.89165710.823067,2.876061,-3.734627,-1.90481510.853035,2.292309,-3.954488,-0.67005610.893043,1.698229,-1.084651,-0.15383210.923012,1.929743,0.339002,0.6982410.953011,-0.231431,-0.862838,0.4568110.992989,-3.311965,0.344067,1.38539611.022987,-4.290079,1.706295,3.30064111.052956,-5.683862,2.594583,4.59346511.092934,-4.900371,1.168559,3.69631811.122932,-3.872513,0.405826,2.03444611.152931,-2.585483,1.643494,0.6676411.192909,-0.188937,1.727355,-0.21134611.222877,0.564264,1.265932,-1.21047711.252876,1.984953,-0.146657,-2.77899611.292854,2.685004,-2.040078,-4.65992611.322853,4.856097,-2.143138,-3.75064711.352821,2.168166,-4.421989,-4.53897111.39283,1.348666,-3.926438,-1.47357611.422798,1.755269,-1.676631,0.64708811.452797,2.396985,-0.48144,0.58658811.492775,0.373945,-0.695101,0.43299911.522774,0.709088,0.295428,0.98906811.552742,-0.589942,-0.133661,0.50774111.59272,-3.993912,1.641371,1.70480511.622719,-5.069671,3.694091,4.30983111.652718,-4.049817,4.919422,6.32062811.692696,-3.422147,1.875881,3.69563211.722664,-3.549075,-0.817825,1.65140611.752663,-2.994854,-0.519495,-0.15764811.792641,-0.531199,1.545193,-0.53982211.822582,0.512219,1.258966,-0.91573411.852551,1.570005,-0.524049,-2.07093311.892559,2.258372,-3.518458,-4.13769511.922528,3.79782,-3.497117,-3.15971211.952526,5.044335,-2.767473,-1.73953511.992504,4.074366,-3.394089,-3.90442212.022503,2.716801,-3.622009,-1.64450512.052471,2.81583,-2.406466,-0.06906912.092449,1.011673,-0.774007,0.3031212.122448,1.490535,0.548054,1.29538212.152447,0.632782,0.045927,0.8558912.192425,-3.424261,-0.38281,0.93171912.222393,-4.283191,1.154533,2.35112312.252392,-5.229467,2.353569,4.47861612.29237,-5.220244,1.989809,3.18314112.322369,-4.436884,0.349845,1.37452112.352368,-3.886054,0.883184,0.42240212.392346,-0.349612,2.957591,-0.10339312.422314,1.459315,2.157789,-0.51810512.452313,2.761335,0.322326,-1.97293512.492291,3.308448,-2.204843,-4.24187812.522289,4.219961,-3.287403,-3.96362812.562268,3.555746,-3.704416,-3.3008212.592236,3.092417,-3.91191,-3.45670112.622235,1.910918,-4.303013,-1.3181412.662213,1.982526,-2.854054,0.03383312.692211,1.176999,-1.615695,-0.07870212.72221,0.918693,-0.01465,0.44622112.752178,-0.063272,-0.257028,0.3340112.792156,-3.910651,0.437286,1.18428112.822129,-4.458001,2.328734,2.30170612.852128,-6.056673,3.05846,4.13765712.892106,-5.901939,2.704625,2.81783512.922074,-3.708175,1.065028,1.23286212.962052,-3.591377,-0.001158,-0.5560912.992051,-2.074715,2.229679,-1.11772713.02205,0.42364,3.615549,-0.37500513.052018,1.541139,2.368487,-0.48173513.092027,2.743792,-1.541187,-2.15302913.121995,3.827794,-2.677732,-3.52227913.161973,2.799727,-4.085575,-3.27351113.191972,2.929533,-4.840229,-3.75498813.221971,3.048281,-3.63035,-1.53001313.251939,3.565987,-2.124449,-0.12227113.291917,2.20853,-0.822619,-0.14048813.321916,1.831593,0.229971,0.98973613.361894,0.535087,-0.472414,1.54511613.391892,-2.33202,0.405427,1.74004113.421861,-4.070998,1.851426,3.09780613.461869,-4.698776,3.125826,6.40804613.491837,-4.95611,2.073002,5.33894113.521836,-3.777064,0.89694,2.62224813.561814,-3.144193,0.056236,0.07140813.591813,-2.070632,0.995472,-0.83757913.621781,-0.155468,1.382742,-0.54815613.661759,1.078243,-0.003885,-1.96756513.691758,2.310353,-2.205349,-3.6400713.721757,3.093959,-3.522458,-4.00469513.761735,4.251121,-2.357151,-2.6555513.791703,4.1083,-3.611708,-3.24377613.821673,3.087481,-3.936079,-2.68315313.861651,2.805373,-3.006356,0.09761313.89165,3.092226,-1.463257,0.33087913.921618,1.6226,-0.765986,0.52900913.961627,1.480185,-0.230982,0.70819713.991595,-1.336065,-0.911517,0.19876114.021594,-3.633049,-0.253331,1.81191614.061572,-5.325476,2.248321,3.4900614.09157,-5.779055,2.748964,4.72830614.121539,-5.293119,1.862435,2.73969414.161517,-4.806146,0.505304,1.25593714.191515,-2.824978,2.092427,1.27041314.221514,-1.109594,2.320102,0.93813214.261492,0.349566,0.770372,-0.53890714.291461,1.892858,-0.300545,-2.50959914.321459,2.874094,-1.777162,-3.81066714.361437,3.896576,-2.432721,-3.68236214.391436,4.285569,-2.41381,-3.14065414.421404,4.079211,-3.385027,-3.54504714.461413,2.215583,-4.550923,-0.97877114.491381,3.154602,-2.393031,0.15722214.52138,2.134778,-0.207182,0.22545314.561358,1.155225,0.30882,1.07076214.591357,-0.380492,-0.361555,0.47415214.621325,-3.358276,-0.012986,1.04912114.661303,-4.295815,2.077389,2.92562714.691302,-5.682956,1.993556,3.57821514.721301,-6.601054,0.801045,3.50155914.761279,-4.976286,0.195901,1.68373214.791277,-3.323407,1.072061,1.4994814.821207,-2.033498,2.327621,0.79386214.861185,-0.057031,2.29245,-0.18643914.891184,1.55273,1.298547,-1.55113714.921182,2.167838,-0.859938,-3.71761514.96116,4.295741,-2.797415,-4.58425414.991129,5.647412,-0.99491,-4.39936415.021127,4.336801,-2.862463,-5.03413215.061105,2.433732,-4.585561,-2.07413115.091104,3.127709,-3.726475,-0.10358815.121072,3.464591,-2.227124,0.15852915.161081,1.77945,-0.206853,0.90689315.191049,1.945143,0.076548,1.31879115.221048,-1.326633,-1.213242,0.60843715.261026,-3.289243,0.994247,2.69348315.291025,-5.005038,2.232142,3.98014215.320993,-5.619543,2.63971,5.21144315.360971,-4.614115,2.037065,3.60183215.39097,-4.655734,0.378725,1.66778715.420969,-4.505664,0.153898,0.37369315.460947,-1.270325,2.365922,0.32214115.490915,0.241246,1.506336,-0.87234915.520914,1.605327,-0.967274,-3.25075615.560892,2.134901,-3.552077,-5.56290515.590891,5.100443,-2.507773,-4.31354515.620859,5.096118,-2.96649,-4.24715515.660867,2.724715,-4.337908,-3.08987215.690836,2.885049,-2.825023,-0.7084615.720834,2.386328,-1.550151,0.23837415.760812,1.240238,-1.203278,0.50453315.790811,0.461526,-0.989171,1.19525415.820746,-1.309645,-1.73408,0.85330915.860755,-3.753656,-0.109187,2.2499115.890723,-5.121371,0.619466,3.12351315.920722,-5.688022,1.754631,4.43657215.9607,-5.398829,1.99036,2.90252515.990699,-4.012462,1.80589,1.56287516.020667,-3.143014,1.717223,0.43444316.060645,-1.693349,2.552683,-0.46091816.090644,0.098487,2.30853,-0.72395916.120643,1.159642,0.992581,-2.21974116.160621,2.986613,-1.981796,-3.73722616.190589,3.986221,-2.230131,-4.01824416.220588,4.470596,-2.709378,-2.85359916.260566,3.392442,-4.190855,-3.15440816.290565,3.660298,-3.506896,-1.21325916.320563,3.557357,-2.532168,-0.08717216.360541,2.506698,-0.490084,0.19137416.39051,2.480071,-0.03383,0.96358216.420508,0.579079,-1.303484,0.57188216.460486,-2.365932,-0.476923,0.89455716.490485,-3.120553,1.524698,2.3931116.520453,-5.453663,2.374966,3.34902116.560462,-5.425318,2.219933,4.6545716.59043,-5.028274,0.827934,2.677716.620429,-5.436439,-1.015328,0.72360416.660407,-3.059919,1.373898,0.19334916.690406,-0.272077,2.81058,0.66741716.720374,0.871838,1.367711,-0.7905416.760352,1.6285,-1.949938,-3.38113316.790351,3.386952,-3.476983,-3.80185816.820315,3.366103,-3.409469,-3.49397816.860293,3.52974,-4.831573,-3.3989116.890261,3.383548,-3.24065,-1.24038416.92026,3.642414,-2.106756,0.56411316.960238,3.327961,-1.588353,0.20890716.990237,2.290518,-1.172318,0.32674517.020235,2.146268,0.222445,0.56244417.060213,-0.63678,-0.347358,-0.39387517.090182,-3.379526,0.171414,1.5321317.12018,-2.546721,3.205162,3.83016817.160158,-4.965018,1.760789,6.00266517.190157,-5.122675,0.112611,3.61691717.220126,-4.443444,-0.79038,1.4662917.260134,-3.157763,1.170442,-0.14058917.290102,-0.527667,2.265517,-0.69456617.320101,1.210454,1.928573,-1.27235117.360079,1.870252,-0.609264,-2.96903417.390078,2.256136,-1.954749,-4.32751817.420046,2.962821,-3.261749,-4.17765417.460024,3.849189,-2.399918,-3.06793917.490023,3.328379,-2.479679,-3.29379117.520022,2.355304,-3.282285,-0.8119717.56,2.002495,-3.052792,0.38187917.589999,1.594484,-1.524988,0.1156417.619967,1.410016,0.169779,0.94452317.659945,0.073603,-0.560437,0.72592517.689944,-3.720424,-0.343239,0.69092917.719942,-3.25571,2.646053,4.1177517.75992,-5.044245,3.074141,5.01940217.789889,-5.699236,1.696962,5.09733817.819848,-5.401007,0.341108,2.54260717.859827,-5.108797,-0.113258,0.31823417.889825,-3.193203,1.540218,-0.36396217.919824,-0.249775,2.599155,-0.37326717.959802,1.67403,1.401601,-1.72964817.98977,1.671239,-1.785041,-3.14686818.019769,3.620378,-3.328852,-4.50506618.059747,4.281979,-2.631483,-3.23287318.089746,4.008635,-3.829875,-4.24106718.119714,2.750894,-4.358652,-2.70692518.159723,3.392132,-3.152604,-0.13388118.189691,2.818439,-1.658842,-0.07574418.21969,1.937202,-0.965693,0.46795918.259668,0.304593,-0.83482,0.32456118.289667,-3.173534,-0.447526,1.22201618.319635,-3.810055,2.434923,3.30852918.359643,-4.648143,3.533843,4.5956318.389612,-5.159609,2.445989,4.96180818.41961,-4.574467,1.343277,2.83559718.459588,-4.365096,0.256354,1.49322418.489587,-3.015342,0.857383,0.71323818.519556,-0.795401,1.417419,0.16127118.559534,1.595847,0.503974,-1.52089718.589532,2.0825,-1.769051,-3.46500418.619531,3.342109,-3.20358,-4.38392718.659509,4.900832,-2.049533,-3.4998618.689508,3.548304,-3.643212,-4.61004918.719476,1.854918,-5.059742,-2.90258218.759454,2.607955,-3.115648,-0.23221218.789453,2.106719,-1.541326,-0.19107918.819429,0.967897,0.25378,0.50047418.859407,1.38186,0.309872,0.80922918.899385,-4.233736,-0.522255,0.66204718.919374,-3.965734,1.90027,2.22218318.959352,-4.005242,4.740817,5.25717518.989351,-4.269614,3.627515,5.40883819.019349,-4.250517,1.687752,2.77042319.059327,-4.303351,-0.096941,0.67631719.089296,-2.770432,0.971108,-0.28631319.119294,-0.756063,1.637022,-0.22779319.159273,0.982382,0.417713,-1.62245219.189271,1.309523,-1.723717,-3.34905719.21927,2.333792,-3.697582,-4.34584119.259248,4.633813,-3.263434,-2.51648919.289216,4.317275,-4.138745,-3.48312719.319215,2.501091,-5.15889,-2.31981619.359193,2.886895,-4.013763,0.67323719.389192,3.145408,-2.042252,0.46718419.41916,2.005175,-0.844647,0.68534519.459169,0.903023,-0.564704,1.02962919.489137,-1.968925,-0.439657,0.79287719.519136,-4.599155,1.589356,2.11815219.559114,-4.138829,3.847136,4.16805919.589113,-5.518042,2.544306,3.75878219.629091,-5.543914,0.999494,1.74379919.659089,-5.094363,1.666161,0.97577919.689058,-3.146374,2.281262,0.56997619.719056,-0.614758,1.946715,0.32271119.759034,1.568346,0.48653,-1.63581519.789033,1.804825,-2.022186,-2.94209919.818944,3.162375,-3.25661,-3.79692819.858952,4.63388,-3.091251,-3.30071819.88892,3.459951,-4.817675,-3.92343219.928898,2.081043,-5.532322,-0.99678619.958897,3.693808,-2.707858,0.75606119.988896,3.026388,-1.231446,0.65804520.018864,1.604568,-0.505064,0.97942720.058842,1.378286,-0.554814,0.6002520.088841,-2.877929,-1.649299,0.23416120.128819,-3.646971,2.404926,2.9515820.158818,-5.112031,3.40147,4.32932320.188817,-4.413212,3.054341,3.82350920.218785,-4.648661,1.440417,2.10887420.258763,-4.365397,0.369001,0.26143820.288762,-2.916344,1.379671,-0.51469620.31876,-0.460122,2.40247,-0.25756120.358738,1.49772,1.332979,-0.81934920.388737,1.937468,-0.895066,-2.51713120.418705,2.228898,-2.715548,-4.19580620.458684,4.063333,-3.804066,-3.19408720.488682,4.082249,-3.771334,-3.23923720.52866,2.741731,-3.718141,-2.38846420.558659,2.148235,-3.678286,-0.02065220.588658,2.414138,-2.743251,-0.02485520.628636,1.296051,-0.657357,0.45747220.658604,2.20707,0.907838,1.68552220.688603,-0.141312,-0.315804,1.15835720.718602,-4.13479,0.33462,1.11695820.75858,-3.177149,3.796226,4.40844520.788548,-4.371333,4.0086,4.5628120.818536,-5.140377,1.440546,4.03054920.858514,-4.859353,0.361631,2.17144820.888513,-4.135945,0.822599,1.15704720.928491,-1.704383,0.971098,0.23791620.958489,-0.121814,0.792101,-0.8852620.988458,0.935246,-0.234862,-2.07064521.028466,2.662435,-2.13573,-3.22440621.058434,3.457129,-3.466871,-4.09032521.088433,4.828472,-3.772644,-2.8305621.118432,4.845131,-3.845219,-3.55438321.15841,2.759623,-3.62367,-0.32418521.188378,3.155969,-2.434919,0.78686621.228387,2.14938,-1.834945,0.39328621.258355,1.172814,-0.610836,1.44341621.288354,1.906632,0.859847,1.62567921.328332,-3.119336,-0.101111,0.62711921.358331,-3.522923,2.65755,2.64286621.388299,-4.233528,4.104679,4.03545621.428308,-5.802667,2.37395,3.73923421.458276,-5.630985,1.012658,1.04124421.488275,-5.809062,0.038272,-0.2720921.528253,-2.81969,1.646179,-0.37002521.558251,-0.521706,1.725801,0.07531321.58822,0.68196,1.177478,-0.64192921.628228,1.659412,-1.256189,-1.85154821.658196,2.168907,-2.901305,-3.17220821.688195,2.290828,-3.761605,-3.23578121.728173,3.437569,-3.360918,-2.3480621.758172,3.265867,-2.933924,-2.76417421.78814,2.538422,-3.181105,-1.11134421.828104,2.540572,-2.522141,0.00052321.858072,2.295826,-1.412109,0.29757721.888071,1.619009,-0.07668,0.57400521.928049,1.097208,0.031296,0.41075521.958048,-2.202382,0.418184,0.44428221.988016,-3.075213,2.851691,2.42239622.028024,-4.774842,3.510247,4.44077422.057993,-4.958442,3.024479,4.71636222.087992,-4.675823,1.787084,2.43496722.12797,-4.692589,-0.257965,0.73834722.157968,-3.741776,0.417711,-0.39412222.187937,-1.215003,1.438316,-0.08509522.227945,1.316036,1.200356,-0.17094422.257913,2.440485,-0.079162,-1.3238822.287912,2.426887,-1.86831,-2.7184322.32789,2.598001,-3.632657,-3.16698122.357889,3.365297,-3.692623,-2.75584822.387857,3.61703,-2.604702,-2.87951822.427866,1.591913,-3.242716,-0.54883222.457834,2.117809,-1.970451,0.07447222.487833,2.095801,-0.569843,0.30411622.527811,0.920696,0.882483,0.99843622.55781,0.561946,0.417592,1.01670322.587778,-3.421663,0.000058,0.81257322.627786,-3.146572,3.861588,3.3475122.657755,-3.732231,4.613033,4.57607822.687753,-5.146044,2.218521,3.89782522.727732,-5.596676,-0.464575,1.07130722.75773,-4.530112,0.517469,0.20150622.787729,-1.916823,1.957739,0.36397922.827685,0.63699,1.725243,-0.3759122.857653,1.2637,0.275339,-1.75414722.887652,1.613248,-1.747505,-2.67322422.92763,3.284997,-2.836481,-3.80715222.957629,3.533095,-3.145702,-3.18327422.987628,3.080122,-4.329862,-2.62683223.027606,3.428281,-3.023346,-1.19105823.057574,2.927747,-2.568308,0.04565623.087573,2.996625,-2.022035,0.32385623.127551,1.665699,-0.5029,0.33823.15755,2.041341,0.490063,0.76369223.187548,0.124436,-0.387987,0.0480823.227526,-3.841103,0.863005,1.18284423.257495,-3.939422,3.221056,2.98016123.287493,-4.5159,4.24857,4.73675123.327471,-4.709,2.366765,3.41002323.35747,-5.055883,0.217579,1.69254423.387469,-4.607997,0.865601,0.56840323.427447,-1.636707,1.703276,0.40913123.457446,0.342806,1.217395,-0.37581323.487414,1.113852,-0.222647,-1.79332423.527392,1.958343,-2.472154,-3.38332123.557391,2.850217,-3.741584,-3.93663723.58739,4.032939,-3.387095,-4.04504623.627368,2.819717,-4.528736,-2.80630223.657366,2.068813,-4.153479,-0.60546123.687335,2.299183,-2.709035,0.36806323.727313,1.760309,-0.613614,0.6732423.757312,1.097969,0.730874,1.31752423.78731,1.475041,0.94589,1.87809723.827238,-2.21349,-0.439705,0.78889923.857237,-3.416136,1.610094,1.92370523.887205,-4.745753,3.213599,3.63749223.927214,-4.781412,3.438709,3.45360423.957182,-5.61235,0.713021,1.68552223.987181,-5.091093,0.052877,0.33182624.027159,-3.738793,1.380658,-0.59547924.057158,-1.88659,1.845215,-0.23161824.087126,0.044498,1.837033,-0.46839624.127135,1.307171,-0.150862,-1.28292824.157103,2.040553,-2.044596,-2.26056524.187102,3.217103,-2.550617,-3.06970824.22708,3.43032,-4.389348,-2.97073124.257078,3.267734,-4.817991,-3.46689324.287047,2.936443,-3.254179,-0.88260224.327055,3.729186,-1.053088,0.71894924.357024,2.72015,-1.574114,-0.03743324.387022,1.001446,-1.189901,0.41295624.427,1.327,-0.145365,0.65613824.456999,-2.837701,-0.400164,0.46992724.486998,-4.277406,1.784367,1.97197524.526976,-4.710995,3.78717,4.03194424.556944,-4.720623,2.364533,3.84744124.586943,-5.131381,0.108625,1.31617524.626921,-3.876815,0.739917,1.01542824.65692,-2.084749,2.118564,1.1487824.686919,-0.121445,1.892574,1.05852224.726897,1.339088,0.832736,-0.89472824.756865,2.18666,-0.924569,-2.44895724.786864,2.529528,-2.273356,-3.87117824.826801,4.214556,-3.351398,-3.51831524.856799,4.844142,-2.855096,-3.87325524.886798,3.289363,-2.581543,-2.77547424.926776,2.642216,-2.4448,0.47618524.956775,2.765688,-1.493423,0.18464624.986743,1.434004,-1.292591,0.01345725.026721,1.109348,0.06384,1.02378325.05672,-1.326224,-0.160197,1.01549225.086719,-3.572106,1.186262,2.02587525.126697,-4.193521,3.145836,3.30106825.156696,-4.1588,2.394517,3.46756625.186664,-5.084215,-0.320871,2.71007325.226672,-3.77266,-0.667839,2.10699425.256641,-2.044214,0.288177,1.7531925.28664,-1.103736,0.324936,1.1066325.326618,0.313775,0.564564,-0.39316725.356616,1.441255,0.449525,-1.69456725.386585,2.273972,-0.566931,-2.88625525.426593,3.043054,-2.033436,-4.26942425.456561,3.889391,-1.80024,-5.37133625.48656,3.336763,-3.321542,-4.33181425.526538,2.750661,-2.056756,-0.98866625.556537,2.706281,-1.240797,-0.06011725.586505,2.560264,-0.39931,0.06026425.626514,1.326293,-0.428706,0.4118625.656482,0.639764,-0.14249,0.88392825.686481,-0.165686,0.45952,0.65775325.726459,-2.683891,1.78581,2.36953525.756458,-3.150309,2.482848,3.21917925.796436,-5.433161,0.887862,4.95044925.826425,-4.874805,-0.3309,3.27859225.856394,-4.568738,0.028399,2.23633125.886392,-3.084148,1.392473,1.9213625.92637,-0.594823,1.657843,0.99356825.956369,0.596465,0.79881,-0.37835325.986368,1.078173,-0.328291,-2.10700526.026346,1.732905,-1.813155,-3.41793626.056345,2.032982,-2.366729,-4.25813126.086313,4.512643,-2.145766,-4.18179526.126291,1.970848,-3.506474,-4.34739326.15629,2.089532,-3.038837,-0.92431926.186289,2.321891,-1.17724,-0.02539526.226267,2.343591,-0.344062,0.06318526.256266,1.338224,-0.870104,0.08442726.286234,0.448809,-0.66265,-0.09246426.326242,-1.619974,0.1195,0.41448926.356211,-3.166855,1.787439,1.33645826.396189,-3.955455,3.897409,2.50478526.426187,-5.726563,3.179201,5.00319826.456186,-5.39899,2.75822,2.65784526.486154,-5.062026,1.120896,1.7210226.526163,-3.087472,2.254281,0.7821226.556131,-0.387626,2.697136,0.90890926.58613,1.663917,2.148507,-0.02423226.626108,2.390324,-0.476784,-2.15583426.656107,2.838058,-1.967596,-3.5626426.686106,3.831814,-2.084448,-3.97794526.726084,4.431567,-2.359204,-4.11681426.756052,2.967847,-3.223685,-4.234526.786051,1.781466,-3.337545,-2.02758626.825991,1.352798,-2.078538,-0.51995126.855989,1.074792,-0.926655,0.28577926.885988,0.797103,-0.691991,0.57463126.925966,-1.495788,-0.18767,-0.03617226.955965,-4.410102,0.645104,1.68789926.985933,-5.320801,2.673217,2.77538227.025911,-6.162758,4.385669,5.9555327.05591,-4.737342,4.210225,4.999627.085909,-4.095507,1.865487,1.94582627.125887,-3.143013,1.140564,0.56675927.155886,-0.79832,2.344124,0.18315427.185854,0.398283,1.669592,-0.42323727.225863,0.99445,-1.172471,-2.09595827.255831,1.139464,-2.77683,-3.69437127.28583,2.231681,-3.26419,-3.98904827.325808,3.875215,-3.412754,-2.80236927.355806,4.254436,-3.394614,-3.85208327.385775,4.173351,-2.932316,-2.97188527.425783,3.227419,-2.256816,-0.97594527.455751,2.598387,-1.972275,-0.34951527.48575,1.489142,-0.926459,0.24614727.525728,0.659277,-0.110264,0.49210827.555727,-1.992481,-0.362718,0.59189727.585726,-4.685763,1.15624,2.1165427.625704,-6.406051,2.157013,3.48393227.655703,-6.124097,3.223277,6.13361527.685671,-4.547892,2.837895,4.11494427.725649,-4.63138,0.478906,2.17570727.755648,-2.583371,2.453547,1.27597227.785646,-0.04994,2.657203,0.87320227.825583,0.64749,1.505326,-0.71565927.855582,1.726613,-0.347679,-2.25445627.885551,1.175496,-2.568553,-4.23586827.925559,2.704054,-3.195853,-3.97937827.955527,4.74598,-2.642959,-3.45189527.985526,3.289324,-4.338627,-5.07381428.025504,3.494015,-2.557405,-1.72184728.055503,3.405797,-1.207856,0.34216328.095481,1.506118,-1.566556,0.26150928.12548,1.041282,-0.728904,1.82476528.155448,1.281537,0.099241,1.71163628.195457,-3.651922,-0.104527,1.49197128.225425,-3.988556,2.434462,3.03965328.255424,-6.388294,2.078103,3.47909128.295402,-4.925175,2.906336,4.52932628.3254,-3.717204,2.665783,3.10361828.355399,-3.436484,0.121559,1.75895428.395377,-3.161997,0.632294,0.26026428.425376,-0.98616,1.628405,0.71222128.455344,0.488125,0.927926,-0.42565328.495322,0.750426,-1.963555,-2.5046928.525321,1.52966,-2.728129,-4.57050628.55532,1.246169,-3.039994,-4.08659728.595298,4.645169,-2.781218,-3.50256828.625297,4.973133,-1.349255,-3.54816828.655265,3.882466,-2.163243,-1.57334828.695273,3.271302,-2.316339,-0.90854228.725242,2.380469,-1.565555,-0.11134828.75524,0.970063,-1.759741,0.61046228.795218,-0.379225,-0.901542,0.47391928.825169,-4.76388,0.407614,1.12523228.855168,-4.358856,2.357219,3.74628928.895146,-5.527898,3.096192,4.02670928.925114,-5.139121,1.987955,3.08457128.955113,-4.9445,0.823396,2.22393228.995091,-3.195615,2.559759,1.81510929.02509,-1.398485,2.783828,1.46853529.055089,0.453087,1.803643,0.30186229.095067,1.098078,-1.015961,-2.24597129.125066,1.230066,-2.851268,-4.05485329.155034,2.333261,-3.583297,-3.33335129.195042,3.200067,-3.614583,-2.14004429.225011,3.874268,-3.716899,-4.34890229.255009,3.622086,-3.680419,-3.11363329.294987,3.632601,-2.618343,-1.64322529.324986,1.920048,-1.788356,-1.29327329.354954,1.622386,0.712654,1.07688529.394963,-0.173221,-0.140765,0.50441829.424931,-4.039617,0.54201,1.37621429.45493,-2.770472,4.353622,3.93054929.494908,-5.696621,1.846476,5.66047629.524907,-5.455269,1.889455,5.49881629.554906,-3.968818,2.33059,3.16938829.594884,-2.301527,0.212289,1.21757929.624882,-1.995251,0.748949,-0.87668629.654851,0.459069,1.535935,-1.18844829.694859,1.13577,-0.34691,-1.93118429.724827,1.945721,-2.117873,-2.53789429.754826,2.875361,-2.435314,-3.32787929.794804,3.101595,-4.032475,-3.02491329.824787,3.581537,-3.572799,-3.61128429.854755,4.160708,-2.45966,-2.32787929.894764,3.05716,-2.906421,-1.82454829.924732,2.060675,-2.905541,-1.15022529.954731,1.852412,-0.536462,0.15694829.994709,0.998764,-0.527039,0.73441430.024708,-2.86344,-0.620403,0.26051630.054706,-3.825825,2.079666,2.22113130.094685,-5.760693,1.866921,3.76412830.124683,-6.5004,2.165906,4.65453230.154652,-4.423221,2.445552,3.20091430.19466,-2.900606,1.546648,2.50692730.224628,-2.337553,1.813057,1.18340130.254627,-0.170952,2.496489,0.54867330.294605,0.95595,1.688159,-1.21154130.324604,1.682474,-0.948308,-2.75318830.354603,1.908339,-2.796771,-4.08675430.394581,2.612579,-2.979703,-2.66527630.424549,3.681953,-4.158937,-3.12638430.454548,4.04304,-3.360889,-4.12849930.494526,3.895518,-2.314034,-1.46242430.524525,2.487926,-2.699557,-1.12640130.554523,1.563293,-1.64603,-0.30141830.594501,1.612255,0.295334,1.34246630.6245,-1.453805,-0.332466,0.95562130.654468,-3.8775,1.271157,2.37786930.694477,-4.124864,3.485429,5.21283130.724445,-4.331107,2.758342,6.27222430.754444,-4.443723,1.21075,4.03267430.794422,-3.302213,-0.055882,1.74247130.824381,-2.57995,0.795297,0.81582330.85438,-0.99482,1.76799,0.48295630.894358,1.153362,0.854977,-0.86079830.924326,1.327969,-1.031269,-3.05993830.954325,1.572972,-2.965897,-4.35243230.994303,2.109822,-3.738681,-3.28188331.024302,4.268675,-3.407548,-2.22538431.0543,4.094829,-2.971855,-3.07462131.094278,3.353569,-3.464251,-1.01987631.124277,3.028653,-3.114458,-0.98762631.154245,2.154423,-1.360522,-0.43803231.194254,2.214715,0.099119,0.67498931.224222,-0.498234,-0.932262,-0.0713331.254221,-4.538099,1.067953,1.57344431.294199,-4.80213,2.922624,3.77224931.324198,-5.258503,2.670243,5.70628531.354197,-4.655877,2.56021,5.02002831.394175,-3.520877,-0.142732,2.11553631.424173,-3.208931,-0.640368,0.70311831.454142,-1.604173,1.502416,-0.40555431.49415,0.529827,2.739282,-0.68690631.524118,1.119986,1.319911,-1.70676631.554117,1.374027,-1.726105,-3.11046231.594095,2.154276,-3.600411,-3.51676631.624094,3.017571,-3.008605,-0.67155431.654093,5.522847,-2.478078,-3.00516431.694071,3.342231,-3.504046,-3.94007531.724039,2.560943,-3.524998,-1.06409631.754038,2.188716,-2.121686,-1.03519931.794016,1.640641,0.456958,0.36935731.823992,1.843333,0.925216,0.94926831.85399,-2.061547,-0.763927,0.36167931.893968,-3.090242,2.821712,2.84404131.923967,-4.419079,2.695264,4.48970131.953935,-5.369648,1.755725,5.21133931.993944,-4.437815,0.873077,2.85009132.023912,-3.365454,-0.671485,1.6823632.053911,-3.434983,-0.14392,0.52145432.093889,-0.546381,2.565574,-0.06950232.123888,1.746038,2.614002,-0.63830932.153887,1.773535,-0.065938,-2.08508932.193865,2.516763,-1.975511,-3.72933532.223863,2.851185,-2.202918,-2.83241232.253832,3.737044,-2.916056,-3.31732432.29384,4.165035,-2.563412,-3.83327332.323809,3.368766,-2.477686,-1.87428432.353807,2.071011,-3.005663,-1.14206732.393785,1.517329,-1.138381,0.27744332.423784,1.251917,-0.22896,1.17665132.453783,-0.472997,-0.994154,0.63193332.493761,-5.827316,-0.671858,1.17973732.523729,-5.082583,2.93885,4.50648932.553728,-4.309826,4.459299,4.89616632.593706,-4.525642,1.487977,2.61344132.623705,-3.616734,0.733064,1.39164132.653704,-2.565705,1.441873,0.84930732.693682,-0.856352,2.432426,0.34281632.72368,0.722616,1.901224,-0.24116732.753649,1.014272,0.339771,-1.87058132.793657,1.969082,-3.268785,-3.13208432.823585,2.511968,-3.134252,-3.96170732.853584,3.770272,-3.92971,-3.22565632.893562,3.530078,-3.827037,-3.12055932.923561,3.709215,-3.115358,-1.25592732.95356,3.368338,-2.173524,-0.79601432.993538,1.444279,-1.506909,-0.50126833.023537,0.743265,0.340013,0.98854533.053505,-0.003892,0.444095,1.40151133.093513,-5.268351,0.363337,1.930533.123482,-6.001243,2.015301,4.08435433.15348,-4.181436,4.248841,5.81543733.193458,-3.981181,1.602248,3.42664233.223457,-3.436088,0.409163,1.53279833.253456,-2.611534,1.113781,-0.1474633.293434,-0.778251,2.296112,-0.52273833.323433,0.441517,1.805029,-0.10875433.353401,1.246295,0.252238,-1.2269433.39341,1.910358,-2.631451,-3.32639633.423378,2.082301,-3.639876,-3.59713933.453377,3.630362,-2.841407,-2.69008633.493355,3.696946,-3.475802,-3.72145133.523353,2.828509,-3.616703,-1.77956633.553352,3.235087,-2.687749,-0.17168933.59333,2.058069,-1.91125,-0.54964533.623299,0.860489,-0.56732,0.17654433.653297,1.364407,0.739676,0.68770933.693275,-3.709139,-0.256809,0.73715433.723274,-3.805307,2.333994,2.42711733.753273,-4.545689,3.165064,4.3962233.793251,-4.366329,2.297099,4.33985333.823214,-4.616853,-0.417303,1.84312933.853182,-3.199167,0.133002,1.21461533.893191,-1.306467,2.63157,0.6232933.923159,0.344286,2.53912,0.33109633.953158,0.782338,1.403044,-0.83297533.993136,1.39205,-1.406298,-2.55828334.023134,1.747638,-2.838453,-3.09247634.063112,2.866593,-3.106458,-2.90147134.093111,3.386105,-3.56758,-2.87636734.12311,3.233802,-4.02878,-3.26140934.153078,3.161906,-3.491913,-1.89861534.193087,2.915753,-2.19924,-0.31224234.223055,2.669832,-1.414499,-0.5866234.253054,1.372,-0.820025,-0.11453734.293032,0.740914,-0.30501,0.83871634.323031,-2.355737,0.050542,0.72735234.353029,-4.563154,1.423744,2.03492534.393007,-4.13687,4.059182,4.89820134.423006,-4.967463,2.958537,4.96330834.452974,-4.562561,1.414115,2.26112934.492983,-4.261629,0.220804,0.55957434.522951,-2.860995,2.41485,-0.00327834.55295,-0.277365,2.92688,0.47350834.592928,1.402609,1.178344,-0.95313334.622927,1.958237,-1.407506,-2.76621434.662905,2.07835,-3.804207,-3.90522334.692904,2.431074,-3.496541,-2.66360334.722902,4.165905,-3.429857,-2.30891534.76288,3.343389,-3.722653,-2.11656334.792879,3.334848,-3.655217,-0.87327634.822806,3.519889,-2.345341,-0.49476634.852804,1.663778,-1.0752,-0.21557934.892782,1.410948,-0.216928,1.39541534.922781,-0.900943,-0.461491,0.7327234.95278,-4.101751,0.274594,1.29855934.992758,-5.346781,2.458194,3.95367835.022757,-4.147055,3.922399,5.02301635.052725,-4.58598,2.238526,3.429535.092703,-4.137866,-0.234074,1.82950335.122702,-3.61453,1.367126,0.5314135.152701,-1.939094,3.40898,0.24977635.192679,0.514482,2.783308,0.08405735.222677,1.259536,0.923917,-1.76644435.252676,1.294232,-1.802122,-3.50838735.292654,2.531105,-3.537119,-3.76999735.322622,3.5938,-2.377076,-2.96642735.352621,4.708034,-2.846229,-3.45336335.392599,3.374857,-2.945746,-2.68575635.422598,2.945585,-3.083791,-0.87859435.452597,2.750814,-2.744913,-0.78298235.492575,1.699651,-1.133748,0.05986335.522574,1.765612,-0.73947,0.87362135.552542,-1.091596,-1.688849,-0.00904635.59255,-5.150877,-0.101714,1.65279335.622519,-4.998612,2.642813,4.35997135.652517,-4.678099,3.670977,5.21664235.692495,-4.894522,0.814045,2.0871935.722494,-4.915864,-0.814799,-0.1351935.762472,-2.377753,3.105618,-0.82713235.792471,-0.189938,4.083363,-0.18630235.822426,0.482618,2.355145,-0.41923435.862404,0.911819,-0.668415,-2.58034235.892403,1.481368,-2.679484,-3.5156635.922371,2.38242,-3.265365,-3.16640135.962379,4.555357,-2.171269,-2.01115535.992348,4.186361,-3.003891,-4.18423236.022346,2.158208,-4.438299,-3.44545136.062325,2.397395,-3.60326,-0.85993536.092323,2.132391,-1.796426,-0.75998536.122322,1.016186,-0.853156,0.23328736.1623,0.805383,-0.122919,1.12713236.192299,-2.150951,-0.410548,0.46513236.222267,-4.035037,1.018575,2.90010336.252266,-4.650603,2.805661,4.89762836.292244,-4.874559,3.175216,5.6257136.322243,-3.89178,1.928194,3.28397336.352242,-4.37817,-0.911359,1.1532336.39222,-3.170591,1.022088,-0.22154236.422218,-0.91007,3.082924,-0.46816136.452187,0.666942,2.709145,-0.39303836.492195,1.399447,-0.368832,-1.35114336.522163,1.864798,-2.080407,-2.57185936.562172,2.454436,-2.840489,-2.41050636.59214,3.405607,-3.638648,-2.79380936.622139,4.117599,-3.297777,-3.99818436.662117,3.475496,-2.932107,-1.46080536.692116,3.359016,-2.654569,-0.96089836.722115,2.555443,-1.713055,-1.23975836.762093,1.702918,-1.165508,0.3589736.792091,-0.576653,-1.524598,-0.18166436.822053,-2.63594,-0.562926,0.23002536.862061,-4.731117,1.948257,3.63727936.892029,-5.541532,2.643824,3.84030136.922028,-5.671723,2.449622,4.57954936.952027,-4.358022,1.643917,2.63267936.992005,-3.106669,0.808329,1.31998337.022004,-2.412553,1.717131,0.15625937.061982,0.315749,2.993761,-0.43162137.091981,1.113578,2.127223,-1.241337.121949,1.473019,-0.120154,-2.57902237.161957,2.397194,-3.173256,-3.50957537.191926,2.942534,-3.009151,-2.74475237.221924,4.190543,-3.415637,-3.14436537.261902,2.987811,-3.599885,-3.09151937.291901,2.907016,-3.478733,-0.87222537.3219,2.910855,-2.868752,-0.93334437.361878,1.055559,-0.680935,-0.27062537.391877,2.302218,0.335542,1.45887537.421845,-1.125857,-0.9247,0.30649537.461854,-4.22385,1.740632,3.1837537.491822,-3.456226,4.266704,6.67529237.521821,-3.589806,3.596651,6.04957337.561799,-4.214164,-0.096059,2.36649837.591797,-4.217238,-0.807455,0.72915737.621796,-2.856838,0.604869,0.13397737.661774,-1.222284,2.087149,-0.51444737.691773,-0.00312,1.618641,-0.76090137.721741,0.973139,-0.239281,-1.83508737.76175,1.338818,-2.347992,-3.82668637.791718,2.589809,-3.450479,-2.9272337.821717,2.956861,-4.604578,-3.19796537.861656,4.127594,-3.295856,-3.79985237.891655,3.372797,-2.499687,-0.6133337.921654,3.163145,-2.761204,-0.23154137.961632,1.806889,-1.659094,-0.13626937.99163,2.492831,-0.013468,1.23856138.021599,0.99719,-0.930968,1.14278238.061607,-5.239451,-0.5932,0.98922238.091575,-5.03737,2.572741,3.90203938.121574,-5.232306,3.796847,4.97663638.161552,-4.751537,2.236861,3.61283238.191551,-4.45913,0.59996,1.55090838.22155,-3.293793,0.687099,0.95072438.261528,-1.164878,2.069898,-0.50716938.291527,0.092731,2.283623,-1.05547738.321495,1.571894,1.750996,-2.04743338.361503,1.881725,-1.63375,-2.93796538.391472,2.901314,-2.83881,-3.50420538.42147,2.996011,-2.359838,-3.01124338.461448,3.507326,-4.444487,-4.02142138.491447,2.893658,-4.752321,-3.19117538.521446,3.59094,-3.342867,-1.04023438.561424,2.363818,-2.544562,-1.58874438.591423,1.048083,-1.764964,-0.47047438.621391,1.975849,0.423667,1.56349238.6614,-2.575339,-0.683917,0.1452638.691368,-4.631672,1.315148,2.44998738.721367,-4.500091,3.964044,5.42253138.761345,-4.599678,3.061529,5.47250338.791343,-4.822792,0.613624,2.81789938.821342,-4.245708,-0.314269,0.95282738.861281,-1.626021,2.738615,0.20825738.89128,-0.035495,3.630144,0.06690238.921248,1.127102,2.791037,-0.45913538.961257,0.282505,-0.479073,-2.51533738.991225,1.055018,-3.276443,-3.09069339.021224,1.584336,-2.836885,-3.60465439.061202,2.717298,-4.172047,-2.45426639.091201,2.895404,-4.197353,-2.93720239.121199,3.523338,-3.615468,-1.56262439.161178,3.965125,-2.957615,-0.52038639.191176,2.556748,-2.470663,-0.84689339.221145,0.764335,-1.740928,0.10372439.261153,0.854032,-1.407762,0.85060739.291121,-4.338316,0.041637,0.19973739.32112,-5.086337,2.765049,3.51793539.361098,-4.126417,5.775016,5.62237839.391097,-4.433133,3.207236,4.64168239.421096,-3.272026,0.532172,1.8029739.461074,-3.642005,-1.45903,-0.0926339.491073,-2.209975,2.470317,-0.55237339.521041,0.21412,4.016014,0.13623239.561049,1.414694,1.803654,-0.91414539.591018,0.642437,-1.670365,-3.00975639.621016,1.895934,-4.031212,-3.16757439.660994,2.516992,-2.319065,-3.39289639.690993,3.970346,-3.079364,-3.17766139.720992,3.490663,-3.711694,-2.61666639.76097,3.113835,-3.823825,-0.91772339.790969,2.585463,-3.719546,-0.96250839.820937,1.687674,-1.815763,-0.50670639.860898,2.028642,-0.692083,0.76514139.890866,-1.926118,-2.053432,-0.39316339.930874,-4.333193,2.560153,2.44850939.960843,-4.176362,4.400648,5.71080639.990841,-5.477155,3.3086,4.88244640.02084,-4.623875,1.835043,2.96125940.060818,-3.613065,-0.448079,0.4532540.090817,-2.67695,0.271543,-1.1018740.120785,-0.994048,1.99475,-1.65529740.160794,0.642568,1.054331,-0.59065640.190762,2.255548,-0.052196,-1.18652240.220761,2.297271,-1.418578,-2.7776140.260739,1.854497,-3.810981,-1.84631440.290738,3.263428,-2.309992,-1.39601740.320736,4.068152,-1.860946,-1.90944240.360714,3.111913,-2.764739,-0.82536940.390713,2.95852,-2.515583,-0.98318540.420712,2.87653,-0.913484,-0.76644940.46069,1.347776,-0.416752,0.71992140.490658,0.410189,-0.432052,0.4628340.520657,-2.612457,-0.904338,0.12044840.560635,-5.537177,1.232672,2.67642540.590634,-3.773511,4.570388,4.76329440.630612,-4.383804,2.484557,3.61960740.660611,-3.754317,0.397972,1.35117740.690609,-3.543153,-0.448333,-0.0079440.720608,-2.415784,1.465198,-1.15171740.760586,1.018936,2.463491,0.01858640.790555,1.607974,1.362522,-0.3071140.820553,1.552961,-1.043687,-1.82801540.860514,2.518806,-3.538892,-2.99657540.890513,2.708582,-3.029669,-3.02597140.930491,3.816007,-4.03432,-3.58783940.96049,3.224278,-3.679437,-1.85702440.990489,4.017929,-2.354603,-0.42812341.020488,3.092013,-1.462789,-0.97793541.060466,1.858128,-0.020361,0.53385841.090434,1.501222,-0.29008,0.84825741.120433,-3.370934,-1.065052,0.14078841.160411,-4.555052,2.211044,3.73993741.190409,-4.179571,4.07631,6.28925541.220408,-3.787334,3.10853,6.02765441.260386,-3.483563,0.101584,1.3017641.290385,-4.080013,-2.018325,-0.53402141.320353,-3.08912,0.168282,-1.00601241.360362,0.365458,2.334481,-0.15282841.39033,1.959732,1.186203,-0.81334541.420329,1.691459,-1.189303,-2.57436641.460307,2.763601,-3.84735,-3.38389441.490306,3.841164,-2.917777,-2.18827841.520304,4.611375,-2.838747,-3.30248241.560282,3.332704,-3.125368,-2.40790941.590281,3.223639,-2.769408,-0.8110241.620249,2.138653,-2.135989,-1.18308241.660258,1.588646,0.209615,0.50056441.690226,1.518088,-0.142515,0.75852541.720225,-3.064461,-1.235383,-0.02603741.760203,-4.989787,2.362154,3.54068141.790202,-5.38359,3.974605,5.98842141.820201,-4.129719,3.9504,6.04885341.86014,-3.083917,0.928827,2.31523141.890138,-3.430059,-1.520057,0.27038841.920107,-2.544623,0.397551,-0.6694141.960115,0.521833,2.038203,-0.28481241.990084,1.160524,1.250346,-0.80192942.020082,1.501052,-0.695411,-2.11086942.06006,1.677924,-3.403097,-3.90067242.090059,1.934285,-3.507783,-2.55303142.120058,5.55846,-2.624325,-1.86932342.160036,2.861767,-3.414834,-4.68048642.190035,2.476645,-2.773058,-2.31619942.220003,2.544495,-0.491421,-1.00990242.260011,0.895414,0.5339,0.2001142.28998,0.765485,0.894442,1.84828142.319979,-0.526522,0.728436,1.61241642.359957,-4.568807,3.250125,4.10770942.389955,-4.263996,4.446048,6.48215942.429933,-4.685753,2.115618,5.35952342.459932,-4.564857,0.229043,2.8022842.489931,-3.297527,-0.985136,2.10033442.519899,-2.076824,1.062834,0.86223342.559908,-0.430716,1.419937,0.58803542.589876,0.061371,-0.34052,0.12274242.619875,1.115835,-1.28701,-1.87497242.659853,1.958289,-2.800159,-3.37659942.689852,3.820753,-1.57471,-3.1400942.71985,4.159077,-2.807567,-3.66074542.759828,4.143539,-4.342419,-6.28919842.789827,3.056919,-3.786976,-2.0067642.819795,3.671775,-1.398289,-0.53896142.859773,1.843107,-1.020906,-0.28844642.889741,1.40138,-0.136339,1.07272942.92975,-1.724227,0.431293,0.25806642.959718,-3.681204,2.682744,2.64888842.989717,-4.340368,3.60554,4.48778643.019716,-4.762665,3.268621,5.18918743.059694,-3.699585,1.905362,3.8313543.089692,-3.363161,0.752753,2.44929843.119661,-3.048998,0.9985,1.97531343.159669,-0.738417,1.539604,1.32591843.189637,0.295593,0.432175,0.22446343.219636,1.086711,-0.718118,-1.63266543.259614,2.008766,-2.072717,-3.79725943.289613,2.791506,-2.401732,-3.75220243.319612,4.547637,-2.849541,-4.57032643.35959,3.156968,-3.166133,-4.99011943.389589,4.128857,-2.464836,-3.03060343.419557,3.152703,-2.258628,-2.15206143.459565,1.755436,-0.99745,-0.36493743.489534,1.292337,0.098012,1.4502543.529542,-0.579688,-0.27612,0.80955343.559511,-4.402534,0.197923,1.49066843.589509,-4.043068,2.161237,4.9801543.619508,-5.110586,2.494961,5.23850643.659486,-5.001224,1.272235,5.80065443.689485,-4.539272,0.192248,4.10909243.729463,-2.750105,1.310214,2.41399543.759462,-0.139702,2.144637,1.19860543.78943,0.814353,1.422356,0.16937843.819429,1.035238,0.590759,-1.46083843.859358,2.372186,-1.56763,-3.63665143.889357,2.203061,-2.401919,-4.81454943.919355,6.143003,-1.472614,-4.29506943.959333,2.257824,-4.088743,-7.06891743.989332,2.633392,-5.105855,-3.4206944.0193,4.067044,-1.068767,-1.72336144.059309,2.858847,0.240343,-1.4053944.089277,0.841109,-1.362552,0.23806844.119276,0.392642,-0.688403,1.22431944.159254,-0.333061,0.54606,1.26710544.189253,-3.957515,0.605397,2.51556244.229231,-3.700686,3.027468,5.14137244.25923,-4.726844,2.176864,7.08730944.289228,-4.15533,1.494735,4.21775244.329206,-4.251562,0.480424,1.92505544.359175,-3.327914,1.272789,1.37000144.389173,-1.519209,1.590901,1.10479344.429151,0.243134,0.21792,0.1356944.45915,0.948141,-0.899258,-1.30947244.489149,2.249106,-0.55751,-2.94592144.529127,2.268484,-2.771424,-2.85586244.559126,3.30262,-2.784776,-4.60337744.599104,2.578241,-2.421029,-5.39142444.629103,3.127553,-2.857896,-1.39116444.659071,2.781436,-2.411066,-1.82352644.68907,2.46979,-1.493704,-1.5662644.729048,1.286225,-0.932306,0.41158444.759046,0.390807,0.078031,0.89859144.789045,-0.294799,1.460088,1.11498644.829012,-4.166939,1.690559,2.99820744.859011,-4.182366,3.197316,2.91981844.888979,-4.159832,3.507743,4.93338844.928988,-4.430731,0.827156,3.53520144.958956,-4.597763,0.054922,2.89229944.988955,-3.391305,0.879458,2.17970345.028933,-1.580675,0.719373,0.97725445.058932,-0.243201,0.82441,-0.21388945.088931,0.99198,0.105239,-1.46976645.128909,2.025833,-1.99174,-2.83261845.158907,2.080672,-2.671837,-4.56011545.188876,4.164308,-2.432509,-4.56172245.228884,4.195616,-2.126256,-3.93271445.258852,3.027552,-2.175019,-2.15092645.288851,2.951808,-1.777778,-1.5209445.328829,1.915861,-0.236865,-1.59606145.358828,1.460114,0.550509,-0.07301345.388827,0.258542,-0.125077,1.08004645.428805,-2.249933,2.037194,1.13537145.458804,-2.93025,4.332663,4.32732845.488772,-3.486923,4.395264,5.63662445.52878,-4.340484,3.294105,5.33172545.558749,-3.3447,1.325364,3.79318945.588747,-3.148769,-0.437608,2.96582145.628725,-2.736162,0.434046,1.56713245.658724,0.101634,1.520192,1.35234145.688723,1.369216,1.016064,-0.36506245.728701,0.955165,-1.804243,-3.35289145.7587,2.327518,-2.82729,-4.31925145.788668,2.943362,-1.721872,-3.53092945.828614,3.554154,-2.520639,-5.07288545.858613,2.050442,-3.075616,-4.14518945.888612,2.317796,-3.105689,-1.36242145.92859,1.855725,-1.660874,-1.42507145.958588,0.557516,-0.087997,-0.33096845.988557,0.773066,0.508687,1.33912146.028565,-3.825503,-0.783536,0.49747146.058534,-4.739891,2.06736,3.11803146.088532,-3.846628,5.047031,6.7025546.12851,-3.088501,4.748598,5.71603946.158509,-2.614541,0.829995,1.86109846.188508,-4.109064,-2.799936,0.64533246.228486,-1.912825,0.305792,0.12031546.258485,-0.513772,1.260575,0.36248646.288453,0.205082,0.617171,-0.16682346.328461,1.33817,-0.875299,-1.76941746.35843,1.214461,-2.537013,-2.87844146.388429,2.284074,-3.012556,-3.64241846.428407,3.70706,-3.335453,-3.99989346.458405,2.594325,-3.075629,-3.63939946.488404,2.706206,-1.770565,-1.09829546.528382,2.718741,-0.926033,-0.39214446.558381,1.649974,-0.837493,-0.18421446.588349,1.058372,-0.874153,0.33987746.628358,-1.391833,-0.997657,0.17518146.658326,-3.765357,0.531879,0.80623246.688325,-5.580754,1.848869,3.23846146.728303,-3.904194,5.360673,5.82158246.758302,-3.323534,4.411347,4.87185846.7883,-3.062012,0.516993,2.88139646.828229,-3.625941,-0.798609,0.17754246.858228,-1.321074,1.035684,-0.42923146.888196,0.243298,1.712483,-0.26909846.928205,1.359799,0.553427,-1.40475746.958173,1.346295,-1.750264,-2.82639146.988172,1.552627,-3.141651,-3.43472947.02815,3.810957,-1.967362,-2.13015547.058149,3.940155,-2.243495,-2.77841147.088148,3.549196,-2.414942,-4.07950647.128126,2.896308,-2.358163,-1.5578947.158124,2.186517,-2.474581,-1.58828547.188093,0.717114,-1.967831,-1.12739447.228071,2.069669,0.660422,1.48546747.258069,-1.323565,-1.52578,0.74089347.288068,-4.342544,-0.08836,1.82954747.328046,-4.416824,4.521647,5.62909947.358045,-3.785833,4.62515,5.79122947.388044,-4.281928,1.87248,3.3164247.428022,-3.417212,-0.262986,0.82198347.45799,-2.558313,0.349246,-0.059947.487989,-2.065324,1.448205,-0.34285847.527967,0.530415,1.443067,0.00866247.557966,1.102717,0.615218,-1.40592847.587964,0.662436,-1.338125,-2.76808447.627943,1.592689,-2.320685,-2.73282147.657941,2.539002,-2.127363,-1.96190647.68791,3.748833,-1.709791,-3.16748147.727918,3.260542,-1.949544,-2.23817247.757886,3.282641,-2.266233,-1.12231547.787885,2.001444,-2.715735,-1.62598847.827863,1.296783,-0.511542,0.20144247.857819,1.711059,0.782903,1.38520447.887818,-1.566153,-0.353281,0.01665847.927796,-4.105843,1.751796,2.46620647.957795,-4.100063,3.896822,5.0634847.987763,-4.004507,3.781807,6.09635448.027771,-4.417636,0.22341,2.87190748.05774,-4.231535,-0.922016,1.28903248.087738,-3.196938,0.351959,0.41295748.127716,-1.456523,1.488118,-0.13212948.157715,-0.542121,0.921002,-0.56602548.187714,0.848131,0.051453,-1.48669948.227692,1.247805,-2.230647,-3.39932348.257691,1.795576,-3.981733,-3.38925748.287659,3.680847,-2.897588,-1.17206548.327668,4.675337,-2.231855,-3.28391148.357636,2.863904,-3.732332,-2.82103948.387635,2.882512,-3.843409,-0.98989548.427613,2.502493,-0.920923,-0.87738848.457611,2.008669,0.178097,-0.18740148.48761,0.523545,0.133699,0.85050548.527588,-1.775623,0.913165,0.54914848.557587,-4.127435,2.643369,2.70925648.587555,-4.68524,3.680333,5.39474648.627533,-4.457785,3.00359,4.56974248.657532,-4.389516,0.726463,2.26958248.687531,-3.741217,-0.059085,1.32999148.727509,-2.247344,1.226949,0.0182148.757508,-0.850124,2.087728,-0.50904748.787506,0.51575,1.645804,-0.62744648.827484,1.577245,-0.371386,-2.45505248.85744,1.526285,-2.274381,-3.38880648.887439,1.962576,-3.103861,-2.2319448.927417,3.54062,-2.805132,-2.05412148.957415,3.285885,-2.712668,-3.74728348.987414,2.537007,-3.449176,-2.45334349.027392,2.480541,-3.38774,-0.93347649.057391,1.668809,-2.126289,-0.89148149.087359,2.044243,0.394228,0.77079349.127368,0.040303,0.433424,1.20294449.157336,-2.67606,0.448765,0.63974749.187335,-3.890601,2.170767,2.75734749.227313,-3.93621,4.846978,5.48106649.257312,-4.476024,3.751355,5.04531949.28731,-3.760423,0.890047,2.29153749.327288,-3.442244,-0.876466,0.32537449.357287,-2.434624,0.848017,-0.10698549.387255,-0.317809,2.39033,0.72308349.427233,0.687694,1.356052,-0.2443649.457232,0.827947,-1.160467,-2.18792649.487231,1.67426,-2.648784,-3.61189349.527209,1.703962,-3.198572,-2.22126549.557208,3.304864,-3.658281,-3.46084349.587176,3.160429,-3.414845,-3.69759949.627185,3.039928,-3.259493,-0.54819949.657153,2.078759,-2.50982,-0.76821649.687152,1.984196,-1.212569,-0.38166249.72713,1.623512,0.39811,1.23496749.757128,-0.001045,0.066771,0.39737649.787127,-3.126534,0.896381,0.75409649.827105,-4.208495,3.551027,4.803249.857046,-3.452261,4.415276,5.85495149.887014,-4.13265,2.375461,3.98810149.927023,-3.636785,0.136142,0.55781149.956991,-2.608482,0.552103,-0.46754349.98699,-1.589006,1.479118,-1.06786950.026968,-0.979704,0.797496,-0.7312150.056967,-0.125475,0.051484,-1.44930350.086965,0.316771,-2.277508,-2.62260550.126944,0.933544,-4.183691,-2.69496150.156912,2.473424,-2.773436,-0.75563150.186911,4.173306,-2.55074,-1.02592250.226889,3.062163,-3.411023,-1.76853350.256887,3.567302,-3.40263,-0.61831950.286886,3.110388,-2.095448,-0.49436650.326864,2.469423,-0.051687,-0.16796950.356863,0.773033,-0.514375,0.96810650.386831,-0.873801,0.032497,0.71500750.42684,-4.022309,0.73937,1.46424250.456808,-4.405846,2.36772,4.14007550.486807,-4.349048,2.734182,3.74128150.526785,-4.365,1.295839,2.4337250.556784,-3.069237,2.035595,1.19219250.586782,-1.675234,2.299717,0.37608150.62676,-1.457151,2.22636,-0.5675250.656729,0.060757,2.198071,-0.45625450.686727,2.043311,0.127709,-0.9338950.726705,1.539732,-2.068711,-3.82135650.756704,2.69659,-3.039561,-2.6343650.786703,2.526173,-4.571575,-3.36862650.826681,2.246679,-4.546517,-3.50593250.85666,3.261354,-3.462405,-0.6983150.886628,3.306811,-2.962392,-0.54443550.926637,1.013781,-2.069382,-0.9320150.956605,2.013977,0.556682,1.33828350.986604,-0.193806,0.847703,0.97820751.026582,-3.702862,1.137914,1.34002251.05658,-3.984007,3.29936,4.94357351.086549,-3.752004,4.450375,5.5640851.126557,-5.052312,1.393081,3.74454751.156526,-4.731848,0.345944,1.88392351.186524,-2.762678,1.872335,1.17571451.226502,-0.714322,2.65049,0.18039651.256501,-0.165446,1.439705,-0.91439751.2865,0.121905,-0.009307,-2.17769251.326478,1.180123,-2.746867,-3.38975251.356477,2.035107,-3.374855,-3.20952451.386445,3.068392,-3.274686,-1.99572351.426423,3.549936,-3.709782,-3.07994651.456422,3.133292,-4.036956,-2.33811551.486421,2.91659,-4.178091,-1.24998251.526399,2.431283,-3.425583,-1.10465451.556397,2.141078,-0.983738,-0.26904351.586366,1.32913,-0.527744,1.12299251.626374,-2.273063,-0.680523,0.47209551.656342,-4.109834,1.875029,2.15810351.686341,-4.102803,3.822712,5.15898451.726319,-4.266746,3.182408,4.72414651.756318,-4.47793,1.652202,2.23327851.786317,-3.405802,0.76515,1.14809651.826295,-2.15813,1.022045,0.24538451.856233,-0.808538,1.626387,-0.2732951.886232,0.437579,1.304231,-0.39725451.92621,1.390395,-0.47881,-1.65640651.956209,1.066406,-2.824781,-3.06213551.996187,2.435763,-3.89078,-1.99080652.026186,3.465977,-3.78526,-2.18610852.056184,3.307029,-3.409335,-2.57844352.086153,3.423975,-3.150027,-0.71114852.126131,2.214525,-3.530419,-0.46799652.156129,1.898326,-1.721119,-0.10644552.186128,2.685864,-0.325535,1.18222652.226106,0.077624,-0.782291,0.65822952.256105,-1.857842,-0.194518,1.1712352.296083,-4.862746,1.49786,2.59923652.336061,-4.671454,3.996465,3.24828652.35605,-4.613983,3.382204,3.83283552.396028,-3.489423,1.577058,1.38035352.426027,-3.185493,0.502251,0.45016952.456026,-2.722381,1.030743,-0.71369652.496004,-0.443822,1.893528,-0.67944752.526002,0.852754,1.521083,-0.57184652.555971,1.966543,0.191866,-1.42034852.595979,2.101499,-2.436185,-2.59717652.625947,3.583424,-2.009115,-1.68484452.655946,3.403616,-3.224921,-2.68809352.695924,3.495105,-3.550083,-3.37950652.725923,3.03998,-3.326416,-0.50929852.755891,3.244965,-2.510321,0.21199952.7959,2.289065,-1.72585,-0.31551152.825868,1.412861,-1.341093,0.3371452.855837,0.256147,-0.627075,0.99848152.895815,-3.482964,-0.089996,1.33092452.925814,-5.274461,2.014905,3.02965352.955812,-4.073623,4.471135,4.20249552.995791,-4.384978,2.225554,2.16340553.025759,-4.225013,0.085961,0.68624853.055758,-3.735765,0.398556,-0.14974353.095736,-1.956718,2.01726,-0.87678953.125734,-0.798922,2.61326,-0.5943353.155733,0.90136,1.991301,-0.40923353.195711,1.838161,-0.928693,-2.27419353.22571,2.085077,-2.780761,-3.20784653.255678,3.0149,-2.866117,-1.6656853.295656,3.679296,-3.388079,-2.710853.325655,3.87194,-3.568843,-3.87745953.355654,2.425364,-4.424078,-0.9947553.395632,2.738801,-2.803062,-0.22887653.425631,2.421708,-0.855077,-0.05289253.455599,1.41734,-0.914784,0.87579753.495577,-1.491757,-0.873921,0.82974853.525576,-3.383229,0.302704,1.82770453.555574,-5.453064,1.886233,3.37720953.595552,-3.821064,3.374888,3.66422753.625551,-4.742541,1.213586,1.32068553.65552,-3.745881,0.456323,0.60295453.695528,-2.246752,1.18032,-0.16491353.725496,-1.313027,1.682174,-0.65598153.755495,0.161462,1.394216,-0.54039953.795473,1.749832,0.753164,-2.0900253.825472,1.561555,-0.959315,-2.70976853.855398,2.690544,-2.507089,-2.41644253.895407,2.957232,-2.724902,-2.05148853.925375,3.626593,-2.747354,-2.38569953.955374,3.197227,-2.593664,-2.01006653.995352,2.407218,-2.970139,-0.27378854.025351,2.080319,-2.374754,-0.33936554.055319,1.628792,-1.29649,-0.66654.095327,1.37177,-0.427536,0.94813754.125296,-1.472529,-0.540439,1.10981654.155294,-3.492818,0.063553,1.3618354.195272,-4.22047,3.412527,4.54723454.225271,-4.450187,3.29166,4.4534154.25527,-4.886256,0.632776,2.28370354.295248,-4.244787,-0.910195,-0.34726454.325216,-3.262777,-0.00784,-1.25440154.355215,-2.235329,0.869536,-1.04905954.395193,0.457257,2.023765,-0.24061354.425192,2.578854,1.344716,-0.27395854.455191,2.375917,-0.264501,-1.62400554.495169,2.857907,-1.613279,-1.5024554.525137,3.334606,-2.383039,-1.93773654.555136,2.804026,-2.59812,-3.83293654.595114,2.845053,-2.680715,-0.86505354.625113,2.704046,-2.680918,-0.10052954.655111,1.857121,-2.378439,-0.18556654.695089,1.973011,-0.742426,0.88529454.725058,0.170937,-0.945438,0.70266654.755056,-2.07295,-0.810464,0.42289154.795034,-4.764279,0.885244,2.40913954.825033,-3.921542,3.29444,3.91498854.855004,-3.730519,3.223008,2.19498154.894982,-4.490991,0.426441,1.06917854.92495,-3.420664,1.256421,0.4906354.954949,-2.146332,1.612532,0.12036654.994927,-1.899381,0.806908,-0.45311455.024926,-0.402713,0.633743,-0.83878455.054925,1.167865,-0.02743,-1.20307955.094903,2.203048,-2.080656,-1.83985955.124871,2.673365,-2.882027,-1.26473155.15487,3.71614,-2.633627,-1.41210555.194848,3.903066,-3.027162,-2.53127355.224846,3.357296,-2.838395,-1.10351455.254845,3.296135,-2.356378,-0.55424455.294823,2.361843,-1.6143,-1.01542255.324792,1.755582,-0.534395,0.28760455.35479,-0.183927,-0.463623,0.93249755.394768,-2.546975,0.673592,1.01815355.424767,-5.015023,1.881396,2.9534855.454766,-4.737298,3.715005,5.24117555.494744,-3.821905,2.437425,3.14430855.524712,-4.153367,-0.564725,0.76645455.554711,-3.574493,-0.691681,-0.38674955.594689,-1.226025,1.804978,-0.7384555.624688,-0.201958,2.107719,-0.42745555.654687,0.805503,1.431727,-0.59224955.694665,1.998376,-0.146289,-1.97906655.724633,2.929266,-2.205091,-2.76882855.754632,2.175118,-3.529081,-2.32700455.79461,2.998432,-3.860487,-1.8309555.824608,3.631004,-3.534164,-2.55903855.854583,2.600043,-3.887931,-1.20773155.894561,2.318305,-3.027556,-0.335855.92453,2.194339,-1.397538,-0.34304255.954528,2.061605,-0.361923,0.32408455.994506,-0.320001,-0.539779,0.68635256.024505,-2.012168,0.901964,0.91214656.054504,-3.83389,2.16904,2.66424556.094482,-3.05409,4.531615,4.16439156.12445,-4.239324,2.590994,3.26920756.164459,-4.569883,-0.128117,1.30416756.194427,-4.086745,0.277126,0.46004956.224426,-2.539195,1.147311,0.26895956.254425,-1.683168,1.193516,-0.01666856.294403,0.160293,0.946291,-0.91037756.324371,1.673945,0.007826,-1.64668556.35437,2.011952,-1.659692,-2.42968856.394348,2.973909,-2.196118,-1.92113556.424346,3.318319,-3.276956,-1.55762156.454345,3.531077,-3.658299,-2.78262456.494323,3.017624,-3.294258,-0.95528656.524291,2.522695,-3.361131,-0.42723756.55429,1.820804,-2.520599,-0.56723756.594268,1.942624,0.227011,0.91020956.624267,0.309209,-0.080234,1.15196356.654266,-1.998325,0.514209,0.67283556.694244,-4.847963,2.319496,3.19034456.724212,-3.435803,4.535804,5.43902156.754211,-3.11621,3.418646,3.63759256.794189,-4.555171,-0.231396,0.61898556.824188,-3.526794,0.166567,0.32337256.854097,-1.855278,1.678741,0.19612456.894106,-0.548335,2.053856,0.05487256.924074,0.3314,1.080077,-0.84085956.954073,1.000307,-0.594225,-1.87204856.994051,3.047158,-2.30534,-2.45299657.024049,2.457714,-3.01793,-2.31426257.054018,2.697229,-3.981205,-1.95851257.094026,3.897647,-3.377913,-2.37821757.123994,3.215264,-3.003101,-0.68229157.163972,2.523714,-2.366172,0.0890557.193971,2.570568,-0.84507,-0.05592657.22397,2.453513,0.409467,0.7556157.253938,-0.06124,-0.175237,0.99365957.293947,-2.73138,0.962934,0.53273957.323915,-5.210721,2.011639,3.30879357.353914,-4.067208,4.383786,4.67565157.393892,-5.112817,1.646951,3.06777757.423891,-4.952922,-0.425754,0.83811357.453859,-3.653309,0.341595,-0.18604157.493867,-1.992161,2.771358,-0.42996557.523836,-0.586563,2.666641,0.33850157.553835,0.591148,0.960173,-0.02859557.593813,1.258924,-1.995086,-2.87740957.623811,3.395338,-3.043239,-3.02860957.65378,3.027216,-2.766362,-2.9102457.693758,3.772428,-4.440492,-3.83198557.723756,3.381982,-3.973039,-2.80824357.753755,3.439416,-3.237743,-0.31057457.793733,3.327066,-2.459735,-0.06510457.823732,1.96178,-1.699693,-0.0194957.853686,0.948225,-0.165386,1.05519157.893664,-1.162536,1.116127,1.25570457.923663,-3.848468,1.26928,1.28437957.963641,-4.752764,3.166335,5.42456757.99364,-2.868534,4.684873,5.01982458.023608,-4.210547,1.382065,1.86261458.053607,-4.494625,-1.24494,0.52489958.093585,-3.197631,0.165735,-0.72912358.123584,-1.717951,1.595125,-0.73628658.153582,-0.643118,1.437958,-0.09999658.193561,2.050635,0.739138,-0.67183658.223529,2.112252,-0.769701,-1.95156658.253528,3.150433,-2.634724,-2.41910358.293506,3.251275,-3.339858,-2.1050558.323504,3.316465,-3.864761,-2.94842558.353503,3.089528,-3.880428,-2.15130958.393481,2.964721,-3.416517,-0.72047658.423449,2.190857,-2.058959,-0.35194158.453448,1.871739,-0.453954,0.28529158.493426,0.477058,-0.564803,1.07999158.523425,-2.448768,-0.57345,0.66853758.553393,-3.440774,1.054437,1.02559158.593402,-5.365077,2.994412,3.811158.62337,-4.328379,3.997802,3.62931158.653369,-4.182327,2.021656,1.77767158.693347,-3.073179,0.22671,0.38760858.723346,-2.674984,1.263042,-0.17275858.753314,-1.140769,2.870934,-0.2231658.793322,0.443471,2.641975,0.32337658.823291,1.342656,1.008527,-0.64326158.863237,0.795064,-2.081521,-2.87739158.893236,2.749686,-2.773047,-2.0585158.923234,3.307448,-3.076217,-2.39640358.963212,2.888557,-4.435491,-4.02445958.993181,2.935037,-3.740307,-1.6928359.023179,3.114325,-2.702691,0.17896259.063157,2.441492,-1.789381,-0.09081159.093156,2.220902,-0.358034,0.15570459.123124,0.688297,-1.123452,0.44726259.163133,-2.355616,-0.076718,0.37736859.193101,-4.230129,2.314832,3.20828859.2231,-3.573401,4.845602,5.51639959.253099,-2.897318,3.675277,4.06752959.293077,-4.185756,-1.217643,0.72671859.323045,-3.898619,-1.60081,-0.36108359.353044,-2.239192,-0.041863,-0.98995159.393022,-1.16433,1.228917,-0.88701659.423021,-0.086713,1.383302,-0.59547559.452989,1.786049,0.585183,-0.5785559.492998,1.608201,-2.191111,-1.85706959.522966,3.36886,-2.305438,-1.23236759.552965,4.910859,-1.482974,-1.14786759.592943,2.641715,-3.354745,-3.14050259.622941,2.548777,-3.948234,-1.63686659.65291,3.133025,-3.724173,-0.53137159.692918,2.043366,-1.48449,-0.87062659.722886,1.451212,-0.889115,-0.00992559.752885,0.347302,-0.58576,0.79926559.792863,-2.681253,0.21802,0.48150159.822862,-5.253103,1.164418,2.4513659.852778,-5.269578,3.313191,4.91432859.892756,-4.415077,4.050536,3.66886459.922755,-4.443044,1.21598,2.12968159.952754,-3.75912,-0.304206,1.04285559.992732,-2.363619,1.350264,-0.37673960.03271,0.900238,2.059731,0.11933360.062709,1.109296,0.993455,-1.13252560.092677,1.062232,-0.504241,-2.8757460.122676,1.833217,-2.590653,-2.85586960.162654,3.525675,-2.653821,-3.69891860.192653,2.847225,-3.631741,-2.96676760.222621,2.446512,-4.273372,-2.50427560.25262,1.899715,-4.021877,-1.10151360.292598,2.63246,-2.633623,0.39871860.322596,2.721442,-1.186692,0.37779860.352565,2.151717,0.155747,0.1853160.392573,0.284175,0.501494,0.93974860.422541,-2.313298,1.118209,1.34526760.45254,-2.76681,2.496733,2.17480760.492518,-4.505913,3.595405,5.38798860.522517,-4.474595,2.748719,4.71787760.552485,-4.886807,-0.331083,1.8151860.592494,-4.116678,-0.963556,-0.25157460.622462,-2.35159,0.620251,-1.40708660.66244,-0.38377,1.837012,-1.57963260.692439,0.515646,1.384279,-1.2281660.722438,2.080672,-0.029005,-0.69718960.762416,3.462439,-1.542784,-2.30420260.792384,3.539484,-1.912009,-1.91999660.822383,3.31761,-2.910063,-0.9736960.852344,2.999943,-3.134602,-3.11213560.892322,2.586283,-3.393874,-1.7190960.92232,2.57529,-2.988864,-0.25324660.952289,2.117688,-1.611112,-0.53942160.992267,1.31565,-0.341125,-0.48474461.022265,0.236083,-0.534225,1.257161.052264,-1.740617,-0.623585,0.84312161.092242,-4.962947,1.25814,2.25171561.13222,-3.976286,4.289148,4.79425661.162219,-5.217214,3.131176,4.02376361.192187,-4.303499,0.683306,1.99209261.222186,-4.270577,0.004389,0.03430561.252185,-3.165821,0.867391,-1.21668761.292163,-1.373458,1.955861,-1.18996661.322131,0.20336,1.171542,-0.51869861.35213,1.83202,-0.82603,-1.01091661.392108,2.808064,-2.835239,-3.03757761.422107,3.977942,-2.343381,-1.51599561.462085,3.801506,-3.019407,-2.32489961.492084,3.686114,-3.410184,-3.35281261.522052,2.647004,-3.99961,-1.13035561.56206,2.57196,-3.065453,-0.23558861.592029,2.814584,-1.371022,-0.72854961.622027,1.887075,-0.518376,-0.05031561.662005,0.339157,-0.000768,0.853661.692004,-1.366712,0.857849,0.94623261.721972,-3.587446,2.10944,3.37479861.751971,-3.16443,4.097377,5.53999861.791949,-4.358094,1.859638,3.23160461.821948,-5.499333,-1.052534,1.85704161.861899,-4.250269,-0.400321,0.52575961.891898,-2.482593,1.148707,0.15983461.921866,-1.02368,1.379445,-0.20624961.951865,0.663804,1.651076,-0.7360461.991843,2.595594,0.24297,-1.77728762.021842,2.313818,-2.59711,-2.42114762.05181,4.074282,-2.468847,-2.79133562.091788,3.561534,-3.087532,-3.24680162.121787,1.984215,-4.918993,-3.45155662.161765,2.174586,-4.00631,-0.46421462.191764,2.698505,-2.866792,0.24222962.221762,1.508125,-2.184545,-0.02934762.26174,1.024902,-0.426034,0.48497862.291709,-0.170709,-0.505689,1.29860862.321707,-3.202785,-0.776791,0.45236962.361685,-6.554092,1.755047,1.36507562.391684,-4.555584,6.09583,4.09594362.421683,-3.60735,5.70255,3.98056262.461661,-4.187693,0.74992,1.52268162.491629,-3.618119,0.71691,0.64509662.521628,-1.55617,2.106624,0.18166562.561606,-0.957818,1.871413,-0.16336262.591605,0.218105,0.734822,-0.04510862.621604,1.912771,-0.711846,-1.35675562.661582,2.109738,-2.882122,-2.98962262.69155,3.191229,-3.849196,-2.2150462.721549,5.498781,-2.622302,-3.59595662.761527,2.527318,-3.829303,-3.85312462.791526,2.553288,-3.388173,-0.01973462.821494,2.655763,-2.433555,0.14962362.861462,2.63233,-1.36647,-0.36383662.891431,1.91872,-0.878295,0.22953962.921429,-0.119798,-0.522561,1.14805162.961407,-2.077028,1.790132,2.48027462.991406,-3.300319,2.695799,4.24242763.021374,-3.388077,2.460332,4.8462863.061383,-4.959415,0.340947,2.44949363.091351,-4.368364,-1.254307,1.63254663.12135,-3.431952,-1.309037,0.77015863.161328,-2.189512,0.001968,-0.90735363.191327,-0.97987,0.541247,-1.34263163.221295,0.440618,0.421988,-1.42001263.261304,2.243156,-0.126562,-2.09790563.291272,3.12156,-1.481361,-1.99450363.321271,2.660213,-2.243292,-2.04811163.361249,2.033439,-3.828592,-3.21678663.391247,1.46003,-4.201709,-1.94787163.421216,1.672321,-3.22372,-0.04168263.461224,3.28868,-1.779005,0.87615763.491193,3.403078,-0.904872,0.68764763.521191,2.390359,-0.387197,0.22431663.561169,0.959531,0.155507,1.13486163.591168,-1.750886,0.895411,1.59128663.621136,-4.66839,1.808722,2.28116363.661145,-3.851029,4.631326,4.03579563.691113,-4.843285,2.78715,3.45135563.721112,-5.013149,-0.038182,1.69955563.76109,-5.063649,-0.109343,-0.18658363.791089,-3.038136,1.478025,-0.78249363.821057,-1.596634,2.089507,-0.81425963.861033,0.430629,1.609348,-0.76110263.891001,2.087341,0.098428,-1.71472263.921,2.253594,-2.310522,-2.22242363.960978,3.846763,-1.887791,-1.92934763.990976,3.897007,-2.92897,-2.96184464.020945,2.593179,-3.613455,-4.10577364.060953,2.115022,-3.056583,-0.35045664.090922,2.1085,-2.803705,-0.48991364.12092,1.406501,-2.170897,-0.40328964.160898,1.665064,0.215613,1.19130164.190897,-0.119003,-0.753569,0.93750664.220865,-3.28037,-0.254186,0.77635864.260874,-5.111153,3.376689,4.031964.290842,-2.387469,6.309834,5.16713364.320841,-2.327305,4.39242,3.03392864.360819,-4.109833,-0.780041,1.00355964.390818,-3.924249,-1.559101,-0.1116564.420786,-2.473948,0.062566,-0.72702964.460795,-0.829622,1.503725,-0.33305664.490763,1.140472,1.387641,-0.13617264.520762,2.040715,-0.165886,-0.85701164.56074,2.362016,-3.162488,-2.10464864.590738,1.484575,-3.412498,-0.74643564.620707,4.460869,-2.045532,-0.20355664.660715,3.621852,-3.02355,-3.17294764.690683,1.202527,-4.92812,-2.19914464.720682,2.58631,-2.630945,-0.22931864.76066,3.070609,-0.311544,0.16237964.790659,1.080668,-0.123513,0.54747264.820627,0.888199,0.763672,1.5435164.860599,-3.040861,0.941052,1.52662764.890567,-4.834108,2.009552,3.20005464.920566,-5.306983,4.021276,5.5471164.960544,-3.458388,3.238708,4.74164564.990543,-4.173375,0.397521,1.33003665.020511,-3.364712,-0.702375,-0.90623665.06052,-2.776041,-1.363407,-2.62830165.090488,-1.744457,-1.221796,-3.0841565.120487,-0.438184,-0.666168,-2.40540865.160465,1.758445,-1.043318,-1.7896965.190463,2.326262,-2.365671,-2.57334965.220432,2.112561,-2.747956,-1.11115865.26044,3.810442,-2.355308,-0.307565.290408,3.821564,-2.731126,-1.91223165.320407,2.723978,-3.539924,-1.15022265.360385,3.182835,-2.705221,1.09594365.390384,2.812877,-1.82644,0.53994665.420352,1.756132,-0.373366,0.56906565.460361,0.47663,0.495821,1.51366265.490329,-2.480991,1.215338,0.05799265.520328,-5.553603,2.220178,2.00032265.560306,-3.38718,5.954015,5.15293765.590305,-4.008551,4.034618,4.29713565.620273,-4.044751,0.067952,2.05286365.660282,-3.162882,-1.13373,-0.01345265.69025,-1.936293,0.377866,-0.92010365.720249,-0.56131,1.408415,-1.37383965.760227,0.231853,0.501705,-1.6509265.790225,1.086406,-0.690051,-2.25581265.820194,1.727148,-2.626608,-2.6630165.860191,1.880199,-3.028984,-1.76697365.890159,3.634532,-2.639281,-1.0905465.920158,3.455608,-2.806896,-2.75870965.960136,1.616652,-3.056268,-1.45277265.990135,1.926652,-2.552127,0.09588466.020103,1.51648,-1.594173,0.52299466.060112,1.250505,0.75626,1.65675866.09008,-0.069375,0.248889,1.9793466.120079,-2.558849,0.668022,1.42359866.160057,-5.538146,3.094984,4.2209166.190056,-3.536651,5.535788,6.26410466.220024,-3.218958,3.795972,4.07800966.260032,-4.098285,-0.145512,0.25527466.290001,-3.255509,-0.89029,-1.14223766.32,-2.414977,-0.265627,-2.35371466.359978,-0.691819,0.783333,-2.17911366.389976,0.436654,0.451294,-1.53754466.419945,1.441813,-0.524716,-1.86754966.459953,2.545309,-2.449696,-2.81393766.489921,2.386735,-2.97388,-1.58992566.51992,2.785134,-3.578971,-1.48413866.559898,3.114812,-3.411133,-1.97895966.589897,2.318288,-3.54345,-0.66154266.619896,2.033605,-3.31506,0.11766.659874,1.979341,-0.509119,0.19870766.689842,2.065574,0.799535,1.15591266.719841,0.048115,0.32373,1.44692466.759819,-2.834845,1.409552,0.98650866.789818,-3.95519,3.690797,3.91860966.819816,-2.359505,5.705842,5.63976966.859754,-4.802343,1.789569,3.5716666.889723,-4.692295,-0.735587,1.57392766.919721,-4.268202,-0.81041,0.02865566.959699,-2.2455,0.834786,-0.97087566.989698,-1.222864,1.575788,-1.48662667.019697,-0.160259,1.040403,-1.59517767.059675,1.423974,-2.070419,-1.95401967.089643,1.602091,-3.412329,-3.65804767.119642,2.519528,-3.33053,-1.43439167.15962,3.936506,-3.157288,-1.83607867.189619,3.180871,-3.244498,-2.75071267.219618,2.459884,-3.527349,-0.50137967.259596,2.164646,-2.473102,-0.10549467.289564,1.920051,-1.049267,-0.36439567.319563,1.222203,0.698371,1.31174567.359541,-0.726157,0.63761,1.83073767.38954,-3.270645,0.959786,1.21522567.419538,-5.309468,2.807968,4.08525667.459516,-1.938992,5.482702,5.67750867.489515,-3.661703,2.15595,2.5215267.519483,-4.238403,-0.812199,0.60237567.559461,-3.722543,-0.879769,-0.90185867.58946,-2.118458,0.671098,-1.24982467.619459,-0.826219,1.503816,-1.01574867.659437,0.902078,0.779716,-1.0167167.689436,1.266758,-0.564137,-1.79908367.719404,2.24876,-2.145483,-2.23643167.759382,2.468501,-2.666481,-0.89613967.789381,3.047603,-3.552334,-1.9423367.81938,3.561337,-3.639445,-3.29493767.859325,1.853416,-3.49913,-0.71689867.889323,1.491993,-2.626697,0.15645267.919292,1.520969,-1.279051,0.26247667.9593,2.280077,0.579985,1.79423867.989269,0.46277,0.889942,1.74759268.019267,-2.349831,0.78398,0.88396768.059245,-5.267327,2.798832,3.75335468.089244,-3.53239,5.793162,5.71601768.119212,-3.711151,4.08993,4.08920468.159221,-4.338444,-0.168645,0.56718168.189189,-4.225729,-0.593422,-0.93534668.219188,-3.216593,-0.057726,-1.87935668.259166,-1.200615,0.244847,-1.14825468.289165,0.500758,0.193603,-1.23090268.319133,1.872074,-1.271309,-1.69901368.359142,2.357188,-3.268473,-2.700168.38911,2.222404,-3.364223,-1.62662768.419109,3.711128,-3.234746,-1.51211368.459087,3.09435,-3.018403,-2.05858568.489085,2.13453,-3.688587,-0.42690268.519054,2.18595,-2.452111,0.31663468.559062,2.173409,-0.186937,0.26348868.589031,1.060741,-0.134288,1.44260568.619029,0.127984,0.870174,1.77306268.659007,-2.948226,2.086003,1.8535568.689006,-4.883191,2.992136,4.70018768.719005,-2.12792,5.312121,4.52142168.758983,-4.012481,1.588877,2.09037168.788951,-4.418253,-0.231029,1.29876368.81895,-4.293088,-0.163765,-0.19471468.858881,-2.864914,0.689295,-0.9866268.88888,-1.510212,1.228267,-0.64829268.918879,0.110909,0.592534,-0.5213268.958857,0.754581,-1.680691,-1.65668868.988825,2.42904,-2.347806,-2.05991569.018824,3.603363,-2.490986,-1.06374469.058802,2.665663,-4.256595,-3.06348669.0888,2.633512,-4.197495,-2.27227769.118799,2.829648,-3.438492,-0.28969269.158777,2.666712,-1.156169,0.01093769.188776,2.854353,0.208405,0.71115969.218744,1.390604,0.212649,1.45631469.258722,-1.004793,0.416599,1.21419669.288721,-3.431434,0.938442,1.76134769.328699,-5.303314,3.509672,4.29010669.358698,-3.184895,4.196736,4.17722269.388697,-4.055608,1.108948,1.66966469.428675,-4.069804,-0.769435,-0.61595769.458673,-3.032558,-0.149816,-1.11061369.488642,-1.330769,1.214168,-1.24225369.52862,-0.066625,1.959165,-0.88469869.558619,1.063972,0.719914,-0.66515769.588617,2.360797,-1.706769,-1.6803369.628595,2.091975,-2.961765,-2.48332369.658594,2.67473,-3.031922,-1.43748669.688562,2.725141,-4.117415,-2.14218369.72854,2.95059,-3.35184,-1.50382269.758539,2.564142,-2.512988,0.16245969.788538,3.190342,-1.247304,0.83752369.828516,2.059983,-0.32953,-0.05055369.858488,1.573706,0.113155,0.82350569.888456,-0.102962,0.345339,1.13826469.928465,-4.405553,0.908583,0.60642669.968443,-3.243076,5.195584,5.73275169.988432,-1.510706,6.278719,5.70117870.02841,-2.896534,2.04686,1.96022470.058408,-3.919577,-0.67166,-0.05111670.088377,-3.458132,-0.559906,-0.81291770.128385,-1.427748,1.371332,-0.49408570.158353,-1.236877,1.231864,-0.06849570.188352,-0.477235,-0.13544,-0.48594670.22833,0.751905,-2.479169,-2.06136970.258329,1.074795,-3.444897,-2.64047170.288297,2.36862,-3.56665,-1.74005770.328306,2.872928,-3.98796,-2.34557270.358274,2.612625,-3.477864,-1.42633870.388273,2.174233,-3.05681,-0.10971370.428251,2.792275,-1.276926,0.50928270.45825,1.840858,0.310939,0.76827770.488249,2.166225,1.571547,1.45251470.528227,-1.651808,-0.209587,0.15259270.558195,-5.343354,-0.131348,0.80820770.588194,-5.184942,2.814319,3.95758370.628172,-2.178284,5.003031,4.18907670.65817,-3.898162,2.1471,1.75702470.688169,-3.670915,0.603836,0.32089970.728147,-2.425111,1.140821,-0.82283570.758146,-1.194405,1.864613,-0.94600670.788114,-0.168461,1.443875,-0.46640770.828092,0.66249,-0.012759,-1.25798870.858042,0.693947,-1.964656,-2.09476570.888041,2.441668,-3.302964,-2.47630870.928019,2.229301,-3.842007,-2.46789870.958018,2.39955,-4.47543,-2.71690470.987986,2.863357,-3.418234,-1.19457271.027994,2.496063,-2.566081,-0.10130271.057963,2.658911,-1.365075,0.20454571.087961,2.114726,-0.240793,0.54581871.127939,0.557184,0.181174,1.48783671.157938,-1.415024,0.408444,1.38186671.187907,-4.014506,0.956358,1.40924271.227915,-4.250498,3.499002,4.32915171.257883,-4.027641,3.523936,3.69305771.287882,-4.636542,1.331355,1.79068771.32786,-3.640518,0.915476,0.25653171.357859,-2.78302,1.715617,-0.76008571.387858,-1.508846,2.126255,-1.31955871.427836,-1.049862,0.34163,-1.50821771.457804,-0.083123,-1.426507,-2.04968471.487803,0.970778,-2.609442,-2.87228271.527781,2.828707,-2.516183,-1.70780171.55778,3.08033,-4.039357,-1.74153271.587778,3.126306,-4.50812,-2.9062971.627756,3.089407,-3.325247,-0.44024771.657755,3.02341,-2.987876,0.38426871.687723,2.069933,-2.388576,0.12693371.727701,1.849849,0.298663,1.12352271.7577,0.495652,0.849594,2.04104771.787699,-1.595524,1.0891,1.23270671.827677,-4.912786,2.002024,3.34561471.857648,-3.922634,3.963816,5.44173271.887616,-3.426052,2.958221,3.51155371.927625,-5.14552,-1.046776,0.40115771.957593,-3.296571,0.064954,-0.26274971.987592,-2.02771,1.67273,-0.82261772.02757,-0.675688,2.591624,-1.02365572.057568,0.614706,1.393116,-1.06557472.087537,1.270263,-0.645373,-1.86036272.127545,1.394739,-2.842227,-3.07982572.157514,3.583891,-2.642462,-1.60544172.187512,2.914184,-2.776047,-2.09673372.22749,2.983682,-3.256076,-2.66953272.257489,2.573676,-3.060641,-1.28844372.287488,2.176026,-2.635103,-0.35501472.327466,1.322133,-1.2389,0.24087772.357434,1.590088,0.286801,1.0834572.387433,-0.564469,0.144696,1.79192972.427411,-2.839735,0.71308,1.23281672.45741,-6.011893,2.333298,3.50389572.487409,-3.239838,6.064319,5.89476872.527387,-3.344322,3.172225,2.39588972.557385,-3.705001,-0.3585,0.62802472.587354,-3.50103,-1.098126,-0.46411572.627332,-1.674405,0.884102,-1.54188172.65733,-0.654279,1.647025,-0.98150672.687329,0.254965,0.443456,-0.38020172.727307,0.968407,-1.794394,-1.87035872.757306,1.484015,-2.916351,-2.19549172.787274,2.677477,-2.452972,-1.06102972.827283,3.178245,-3.548738,-2.67268772.857209,2.708809,-4.206478,-3.7158472.887208,0.890844,-5.278655,-1.34358672.927186,2.883946,-2.161808,1.104272.957185,2.295596,0.146871,0.94725272.987183,1.504648,0.605139,1.44954573.027161,-0.915624,-0.200462,1.91592573.05713,-4.164942,1.642823,1.86574373.087129,-4.96179,3.746036,5.06298573.127107,-3.292745,4.886911,5.49320173.157105,-4.996126,1.121915,2.71372273.187104,-4.823931,-0.873735,0.81301673.227082,-3.907906,-0.813515,-0.55572473.257081,-2.436088,0.166084,-1.11628373.287049,-1.099398,0.310218,-1.43517473.327058,1.04856,-0.419048,-2.18509673.357026,2.092067,-1.87023,-2.27922273.387025,3.920205,-2.420543,-3.08737873.427003,3.318001,-4.626037,-1.95392873.457002,4.640847,-3.358075,-2.24168473.48697,4.854,-2.267804,-1.41154973.526978,3.507689,-2.485482,-1.34912473.556947,3.080256,-1.693174,-0.59214373.586945,1.853084,0.508216,-0.10794273.626923,0.223274,0.477571,1.48000273.656922,-2.086874,0.303576,1.58584373.686921,-5.19881,0.939766,2.28313873.726899,-4.649161,3.307332,5.84747573.756898,-3.481269,3.26929,4.65300973.786866,-4.866365,0.275615,1.98546273.826844,-3.298905,0.29422,0.73822473.856812,-2.276013,1.625208,-0.02407873.886811,-1.363198,2.456399,-0.48229573.926789,0.396332,1.277746,-0.6400373.956787,1.358703,-0.8652,-1.87200773.986756,1.742826,-3.125074,-2.88870374.026764,3.611674,-2.585154,-3.03643674.056733,3.783054,-3.195976,-2.29147674.086731,4.041683,-3.533625,-3.23225874.126709,3.520059,-2.931708,-1.3309274.156708,2.814003,-3.19487,-0.36502974.186707,1.920601,-2.613345,-0.2577674.226685,2.042275,-0.484595,0.49897774.256653,0.099952,-1.027042,0.49033574.286652,-2.608805,-0.45643,0.25361174.32663,-5.365533,1.554667,2.44372974.366639,-4.965129,4.063059,4.03875574.386628,-5.285248,3.317009,4.09624674.426606,-4.725919,1.227961,1.68848974.456604,-4.052157,1.155408,1.11355874.486573,-2.636207,1.730399,0.52540374.526581,-0.938358,1.870463,-0.11972974.556549,0.743553,1.466467,-0.50469974.586548,1.945786,-0.238404,-2.1434274.626526,2.063521,-2.777857,-2.82161174.656525,4.019443,-2.883885,-2.53405774.686524,3.659588,-3.64345,-4.08799274.726502,4.155509,-4.730982,-3.64953374.75647,3.357289,-4.34967,-1.09647374.786469,2.826108,-3.823209,-0.5801374.826447,1.926322,-1.829425,-0.00765674.85642,2.417439,-0.376556,1.42409774.886418,-0.079748,-0.181575,1.22314574.926396,-2.473653,1.322653,2.126574.956395,-4.672248,2.549547,3.11938274.986364,-5.580554,3.115872,4.79592775.026372,-5.423707,2.191118,4.17263875.05634,-4.814834,0.529055,1.78914575.086339,-3.367236,0.477995,1.03909775.126317,-2.677178,0.982417,-0.75945275.156316,-1.133458,1.613728,-1.49167275.186284,0.477131,1.254616,-1.90964975.226293,1.578433,-1.085935,-2.66731475.256261,2.652267,-2.398995,-3.74825175.28626,3.074492,-2.571777,-2.93649175.326238,2.655442,-4.306872,-2.41558175.356237,3.361525,-4.208176,-2.30396675.386235,3.594696,-3.373781,-0.80748875.426213,3.041174,-2.790044,0.1064275.456212,2.909042,-1.440577,-0.00641275.48618,2.223754,-0.622877,0.23660375.526189,-0.144412,-0.285781,0.72934575.556157,-2.462539,0.453488,0.4710675.586156,-5.563986,2.137699,2.35726675.626134,-3.484724,4.688176,4.9378875.656133,-4.951401,2.420733,3.81203375.686101,-4.412899,0.435148,2.1246975.72611,-3.628205,0.438419,0.99283975.756078,-2.515728,2.122254,0.38420175.786077,-0.872292,2.737312,0.62542675.826055,0.978442,1.068376,-0.46782275.85602,1.285533,-1.322873,-3.05112175.886019,2.324175,-3.276892,-3.41452775.925997,3.947825,-2.353077,-2.98030275.955996,4.367794,-3.989864,-4.19172775.985964,4.263765,-3.904725,-4.06805376.025973,3.29344,-3.470309,-1.23816676.055941,2.850169,-3.250299,-1.04748776.08594,2.270766,-1.45001,-0.3345476.125918,0.716288,-0.203604,1.33623276.155917,-2.049317,-0.834837,1.17814976.185915,-4.534372,0.391061,1.68302276.225894,-4.815576,4.17281,6.07232476.255862,-4.113734,4.251735,5.34143676.285861,-4.635935,1.577884,2.60804676.325839,-3.731938,0.123075,1.3467176.355837,-2.204539,1.079014,0.55241776.385836,-1.614226,1.692844,0.00801476.425814,-0.58199,1.134044,-0.59619876.455813,0.418218,-0.053262,-2.19927376.485781,0.841621,-2.161338,-2.58478376.52579,2.835399,-3.013243,-3.27853276.555758,2.546461,-2.820551,-2.62556776.585757,4.37252,-3.805051,-2.65178976.625735,3.422936,-4.094255,-2.96116476.655734,2.944483,-3.519962,-0.53398876.685732,3.217896,-1.843509,-0.02857676.72571,1.671846,-0.679905,0.53342576.755709,0.132582,0.51115,1.99012576.795687,-2.447946,1.33351,2.43134676.825655,-5.616302,1.405989,3.24517276.855607,-4.907883,3.222318,5.41220876.885606,-4.791685,2.604527,5.0364576.925584,-3.568904,0.134741,1.95905876.955583,-2.980074,-0.509611,0.39260176.985551,-2.42263,-0.026553,-1.07331677.02556,-0.237148,1.961516,-1.9365877.055528,0.71024,1.401098,-1.80110377.095536,1.836731,-1.223071,-1.89864677.125505,2.259278,-2.71867,-2.97460777.155503,3.792737,-2.303007,-2.41661277.195482,3.919532,-3.254174,-3.49180777.22548,3.47446,-3.509459,-3.60049877.255479,3.560535,-3.108895,-1.37888677.285447,2.951162,-3.135312,-0.9614477.325456,1.387341,-2.219296,-0.52548977.355424,1.702246,-0.666479,0.46915677.395402,-1.646848,-1.252367,1.31237777.425401,-4.310966,0.251596,1.19855677.4554,-5.411284,2.710355,4.30735277.485399,-3.155959,5.395594,5.05983277.525377,-4.147732,1.499025,3.52540577.555345,-4.178698,-0.60037,2.51514377.585344,-2.860067,-0.381558,1.73605777.625322,-1.374636,2.07151,1.29986477.65532,0.444473,2.388378,1.00474177.695298,2.162137,0.664368,-1.79190577.725297,2.497024,-1.598709,-3.56244377.755296,3.497079,-2.658947,-3.68165577.785264,5.176677,-1.676366,-5.03592877.825273,2.661977,-3.170563,-4.78467477.855219,2.307255,-3.520312,-2.14860177.895228,2.644162,-2.54469,-2.06070177.925196,2.18261,-1.229418,-1.56557977.955195,1.396778,-0.433929,0.02963877.995173,-0.343913,-0.165236,1.29168778.025171,-1.095044,0.557781,1.73204578.05517,-3.356458,1.101554,3.74906278.085138,-4.012282,2.135351,4.7017778.125116,-4.736425,1.650315,4.6336878.155115,-4.541838,-0.039713,3.44950378.195093,-4.70399,-0.909609,1.94116378.225092,-3.510198,0.725504,0.99750378.255091,-2.173468,1.982595,0.43881778.295069,0.226744,1.867151,0.00290678.325068,1.814504,0.742818,-1.2561678.355036,2.131323,-1.674699,-2.80997578.395044,3.330514,-2.517768,-4.41246178.425013,4.552474,-1.436156,-5.02253278.455012,3.269319,-2.836474,-4.055678.49499,2.245996,-2.980544,-1.78216378.524988,2.128459,-2.603296,-0.90219378.554987,3.113214,-1.49181,-0.54583278.594965,2.689291,-1.220742,-0.35137578.624964,1.010004,-1.458808,-0.16321878.654932,-1.083077,-1.247363,1.06281378.694941,-3.754579,1.538848,2.33785178.724909,-4.502777,3.469707,4.44490378.754908,-3.647737,4.488636,4.70240978.794886,-4.068703,0.922665,3.56234778.824885,-4.277222,-1.142811,2.82055178.854845,-3.995538,-0.787839,1.50538878.894823,-2.250564,0.59292,0.88484678.924792,-0.454324,1.447116,0.6882378.95479,1.522367,0.93977,-0.60640978.994768,2.003339,-1.771532,-2.67520679.024767,3.292929,-2.702731,-3.66312979.054766,4.758118,-1.851184,-3.34268579.094744,3.736353,-2.350685,-4.53222879.124743,2.531232,-3.343993,-2.28022979.154711,2.144865,-3.169984,-1.1401879.19472,2.833351,-1.821317,-1.13275479.224688,2.807957,-0.91265,-0.41087279.254687,1.470926,-1.11989,0.31916379.294665,-1.355269,-0.015743,0.90150579.324663,-3.579307,1.432158,2.22567779.354662,-4.299742,2.816444,2.90198579.39464,-5.583616,2.520102,2.82065179.424639,-4.692018,1.981536,3.73174779.454607,-4.221798,1.711439,2.61861879.494616,-2.831387,1.637575,1.48292179.524584,-2.144628,1.064527,0.4668679.554583,-0.982319,1.071626,-0.64257979.594561,1.523974,-0.208602,-1.83623679.62456,2.038935,-1.787117,-3.02622379.654558,3.368917,-2.58372,-3.65270779.694537,4.758958,-2.000355,-4.29731679.724505,3.094244,-2.863994,-3.71095479.754504,2.292966,-3.048002,-1.58245179.794482,2.375584,-2.41212,-0.78872679.82448,1.58503,-1.971484,-0.65217379.854462,1.465489,-0.491849,0.00409179.89444,-0.480125,-1.112543,0.58805879.924439,-2.412231,-0.61101,0.16941179.954407,-5.643255,1.495966,2.15663979.994416,-3.385776,6.408237,5.26686480.024384,-3.056451,4.234774,4.7010380.054383,-4.206545,0.022204,2.61837380.094361,-4.230466,-0.235076,0.10947580.12436,-2.325558,1.853105,-0.07564380.154358,-1.404359,2.381744,0.16276480.194336,0.13723,0.713841,-0.75597580.224335,1.666419,-1.043533,-2.86438780.254303,2.296477,-3.102293,-3.22047880.294312,3.63883,-2.81937,-2.99003480.32428,4.734309,-3.060337,-2.96550380.354279,4.110452,-3.266526,-3.68904280.394257,2.077941,-4.239249,-1.19260980.424256,2.500382,-3.125738,-0.67954480.454255,2.006967,-0.686727,0.2809580.494233,0.331885,-0.413604,1.64180380.524231,-2.264133,-0.286194,1.47923880.5542,-4.0992,1.741918,1.93717180.594178,-5.742076,3.917133,6.13270680.624176,-3.55127,4.634963,5.59038680.654175,-4.624677,1.467687,2.74427680.694153,-3.00475,-0.798269,1.06903780.724152,-2.367062,0.226566,-0.1603180.75412,-1.630992,2.08201,-0.85561280.794129,0.171852,1.846762,-0.78811180.824097,1.190444,0.282064,-2.45459780.854096,1.200918,-2.01287,-3.80176380.894037,3.953311,-2.486707,-3.32066980.924036,3.230777,-2.836449,-3.38018180.954035,3.517096,-4.213146,-3.96240680.994013,3.003616,-4.151563,-1.42559881.024011,3.116631,-3.570693,-0.52176281.05398,2.347811,-3.48206,-0.01255981.093988,1.636422,-1.329728,0.93955481.123956,1.083373,0.406548,1.65283481.153955,-1.862139,-0.35797,1.5276881.193933,-7.347039,0.444077,1.58834881.223932,-5.211078,5.375182,5.21644481.253931,-3.403485,6.311821,5.36155281.293909,-3.275276,1.218494,1.89492181.323908,-4.483031,-1.20998,0.49470781.353876,-2.861678,-0.259316,-0.67127181.393884,-1.01946,1.627428,-1.18200481.423853,-0.040502,1.832088,-1.16976181.453851,1.93573,0.39371,-1.79822581.493829,2.683516,-2.688764,-2.55904581.523828,3.521289,-2.691675,-2.41859981.553827,4.122985,-2.773102,-1.96265481.593805,3.698862,-4.306596,-3.49657681.623804,2.657095,-4.92631,-1.61521581.653772,3.159259,-4.486072,-0.35728181.69375,2.178748,-2.06425,-0.12036581.723749,1.973835,-0.155708,0.85849981.753748,-0.244799,-0.017367,1.1108381.793726,-2.867735,0.619657,0.80273381.823724,-5.365563,1.433915,2.35503281.853723,-6.037104,2.992105,4.08471181.893659,-5.219032,3.5826,4.00962481.923628,-5.141753,1.689199,2.02121281.953626,-3.654638,1.397253,1.26741481.993604,-2.010552,2.108303,0.12763782.023603,-1.296649,1.99971,-0.60724882.053602,0.270306,1.205444,-0.9662682.09358,1.558303,-1.070731,-3.09185382.123579,2.321005,-2.780336,-3.36382582.153547,3.826952,-2.512002,-3.14484482.193555,4.125912,-4.161089,-3.18642982.223524,4.608094,-3.628665,-3.93442682.253523,3.829354,-3.469766,-1.0875482.293501,2.734967,-3.432812,-0.29987682.323499,2.09295,-1.051081,-0.13280482.353498,1.82007,0.197821,1.17030982.393476,-1.705209,-0.183976,0.81936982.423475,-3.434365,1.946751,1.45834982.453443,-4.729083,2.941058,4.14824382.493452,-4.537524,3.914761,5.55857582.52342,-4.891855,1.723735,4.00251982.553419,-4.391155,-1.368603,2.47833582.593397,-3.922769,-0.992356,1.09691282.623396,-3.205751,1.692595,-0.12396382.653394,-0.921576,2.56829,-0.05570982.693372,1.906975,0.481171,-1.56191882.723371,1.834312,-1.754269,-3.9608182.753339,4.085187,-2.539981,-4.14340982.793348,4.070425,-1.683434,-3.39666282.823316,4.905639,-2.511766,-4.20150182.853315,3.850742,-3.048381,-3.97403782.893251,2.953303,-4.172813,-1.46142782.92325,2.104781,-3.696752,-0.84694782.953249,2.209535,-1.164867,0.01460282.993227,1.226325,-0.746685,1.128483.023225,-1.779597,-0.861064,0.57737983.053194,-3.843377,0.755832,2.20980183.093172,-5.683717,2.538788,5.20828883.12317,-4.364876,3.380948,4.72960583.153169,-4.637577,1.715501,2.89182883.193147,-3.759974,-0.914942,1.64583583.223146,-3.650597,-0.944004,0.50410383.253145,-2.51614,0.974819,-0.40508483.293123,0.810483,1.792865,-0.09790883.323091,1.316375,1.299769,-1.73757183.35309,2.261237,-0.452505,-2.79530683.393068,3.825898,-1.677923,-3.11374683.423067,2.61446,-3.006055,-4.2501783.453065,3.791188,-2.7172,-4.27592183.493044,3.725546,-1.969539,-1.74992983.523042,2.056652,-3.431476,-1.58040583.553011,1.453593,-2.698703,-0.96387383.593019,1.618066,-0.334632,0.99727783.622987,-0.213635,-0.582687,1.42422383.652986,-2.672178,-0.24756,1.63267883.692964,-6.025491,0.957612,3.33506383.722963,-5.471587,2.129215,3.62829583.752962,-5.527323,0.809872,4.33821683.79294,-3.759001,-0.018601,3.19860383.822939,-2.056757,1.000235,2.58100683.852907,-0.706547,2.01473,1.38085483.892886,-0.679364,1.648677,-0.64004383.922855,0.208101,0.734554,-1.52559783.952853,1.932049,-0.53567,-2.41738983.992831,3.004961,-2.123475,-3.49093284.02283,4.505219,-2.328098,-4.2347984.052829,4.892856,-1.315946,-5.91172784.092807,3.373868,-1.271825,-2.76120984.122806,3.349963,-2.190855,-1.11258584.152774,2.689603,-3.028605,-1.86746384.192783,2.214228,-1.882255,-1.29206784.222751,1.321455,-1.587695,-0.11064684.25275,-0.281558,-0.086041,0.49287584.292728,-1.80486,2.011561,3.65365284.322726,-2.981247,2.711793,5.9568284.352725,-3.138674,2.363804,5.40135884.392703,-4.836695,-1.363126,3.03650284.422702,-4.684964,-1.475565,2.3378384.45267,-2.204925,0.707926,2.09974384.492648,-1.521409,0.700447,0.38079584.522647,-0.541498,0.111972,-0.23997284.552646,0.903834,-0.161923,-1.04487484.592624,2.026553,-1.255211,-2.23332784.622623,3.433435,-1.793034,-2.79390684.652621,3.597332,-1.733668,-2.23098784.692599,3.301097,-2.144203,-4.96976484.722568,1.918177,-3.54926,-2.55476584.752567,2.540998,-2.795261,-0.8081184.792545,3.049098,-1.51556,-1.14690484.822543,1.26578,-1.141334,-0.37501384.852542,0.308394,-0.298811,0.86240184.89249,-1.469225,0.676946,1.82602884.922489,-3.208455,1.717438,2.77402584.952457,-4.223771,2.783716,3.97808584.992466,-4.436738,2.249206,4.04619985.022434,-4.429764,1.193104,3.20605585.052433,-3.341842,0.049791,2.93337785.092411,-2.522636,0.481925,1.5207985.12241,-1.259562,1.253443,0.44240785.162388,-0.463978,0.617906,0.07581685.192386,0.636636,-0.019008,-1.01566285.222385,1.900483,-1.090963,-2.53572785.252353,2.889543,-2.030022,-3.18805585.292362,3.914805,-1.631605,-4.32739685.32233,3.660281,-2.729948,-5.56791185.362339,2.477971,-2.541025,-2.81821485.392307,2.397434,-2.007169,-1.18761485.422306,3.03035,-2.113358,-0.52578885.452305,2.177878,-1.05683,-0.14709985.492283,1.124945,-0.209369,0.68013785.522281,-1.940374,0.069215,1.24118285.55225,-3.055758,2.050455,2.13494885.592258,-6.466755,2.549613,4.27920585.622226,-4.995949,4.492624,5.96959685.652225,-4.124825,3.634659,5.00477985.692203,-2.272639,0.090947,2.43753885.722202,-3.575033,-1.850415,0.09232985.752201,-2.466809,-0.853352,-1.18528685.792179,0.639838,1.373227,-0.96529785.822147,1.915481,0.635457,-1.35085185.852146,2.015541,-1.294296,-2.40790985.892077,2.565078,-2.931693,-2.92670885.922076,3.682162,-2.268731,-2.00665285.962054,4.303044,-2.694419,-3.94079285.992053,2.473451,-4.040992,-3.84697586.022051,1.809837,-4.744764,-1.82947986.062029,2.353755,-1.704547,-0.48989786.092028,1.502465,0.253935,0.32897586.121996,1.001404,-0.125215,1.03859686.162005,-3.649824,-0.422961,1.49754286.191973,-6.056606,1.873871,2.43450586.221972,-5.385002,4.797176,5.12359986.26195,-4.169469,4.965676,5.36840386.291949,-2.479041,2.425184,2.8724286.321948,-3.315546,-0.128464,0.98894886.361926,-3.142335,-0.236018,-0.96322586.391924,-1.295683,1.702494,-0.62102986.421893,0.574476,2.049137,-0.64358986.461901,1.074728,-0.460681,-3.35827386.491869,0.901278,-3.21669,-3.91589586.521868,4.137658,-2.670918,-4.31552186.561846,3.297743,-4.218576,-3.7200886.591845,3.20349,-4.947848,-3.03889586.621844,3.163758,-4.499584,-1.45588186.661822,2.712435,-3.611606,-0.52668286.69179,2.106732,-2.023391,-0.10213886.721789,1.889358,-0.92743,0.87647586.761767,-0.125995,0.183692,1.40520386.791766,-2.522898,1.751346,1.02382286.821764,-6.337455,1.995938,3.49222486.861732,-4.777072,4.685036,5.85920986.891731,-4.694221,3.860111,5.10331586.921699,-4.040717,1.564218,2.73391786.961708,-3.594265,-0.035567,0.78072986.991676,-2.694839,1.793676,0.33218687.021675,-0.797557,2.733997,0.6687787.061653,1.879387,0.904942,-1.61400387.091652,1.450634,-1.863958,-4.31733287.121651,3.628716,-2.508093,-4.34911987.161629,2.618802,-3.717626,-3.33072887.191627,3.399731,-4.994917,-4.78364687.221596,3.207364,-4.721059,-2.34407487.261604,3.698646,-3.786964,-1.63911387.291573,2.596616,-2.645248,-1.26181187.321571,1.827348,-0.814081,0.91863787.361549,0.567035,0.312863,1.17852787.391548,-3.319881,-0.178025,0.85920887.421547,-4.811698,1.636233,2.39311587.461525,-5.824816,3.325171,5.15945287.491524,-4.595365,3.553185,5.388887.521492,-3.992421,1.864208,2.93620787.56147,-2.490296,0.377485,1.77206187.591469,-2.273469,0.422182,0.31984587.621468,-1.584062,1.896364,-0.17821187.661446,0.842833,2.37515,-1.30992287.691444,1.723875,0.135718,-2.99299787.721413,2.168819,-3.167913,-3.48381687.751411,3.476883,-2.637604,-3.69130287.791389,4.551629,-3.026704,-2.52953887.821388,3.944935,-4.125022,-4.79957787.861332,2.837712,-4.148566,-1.85990487.891331,3.601406,-2.91257,-0.55604187.92133,1.910631,-1.838372,-0.82244287.961308,1.221334,0.830496,1.55929787.991307,-1.157443,0.597986,1.61475688.021275,-4.906863,0.764598,1.73989288.061283,-5.72537,4.602161,6.19255588.091252,-4.162631,5.751178,7.61637488.12125,-4.999168,2.315815,5.29469688.161228,-4.828664,-2.290864,1.84978988.191227,-3.368511,-1.276373,0.28102488.221226,-1.769344,1.005071,-0.7881288.261204,-0.527762,1.478969,-1.75535788.291172,1.162014,-0.688838,-3.09358188.321171,1.391193,-4.082297,-4.10200288.361149,5.363462,-2.975188,-4.03630388.391148,6.818306,-1.013655,-3.2099788.421147,4.205813,-2.865648,-4.91924788.461125,2.451728,-4.671569,-2.4703988.491124,2.849581,-3.979286,-0.92149588.521092,2.640442,-2.140011,-0.19062588.5611,1.642221,0.632865,1.35044188.591069,-0.053565,0.804365,2.12336488.621067,-2.55986,1.439868,2.058988.661045,-3.982541,3.128271,4.79444488.691044,-4.564114,3.520186,6.59848488.721043,-5.376693,1.657626,6.59132588.761021,-4.906607,-0.571092,3.83203788.79102,-2.923146,-0.064554,2.53404188.820988,-1.948446,0.564734,0.35217788.860946,-1.264729,0.766097,-1.58166988.890914,-0.203133,0.136758,-2.91832388.920913,0.773623,-1.607126,-3.26909288.960891,2.81684,-2.550959,-3.99016288.990889,3.206514,-1.733703,-3.3104389.020888,3.515486,-2.630304,-2.51289489.060866,3.297522,-3.381474,-4.43248289.090834,2.023721,-3.49978,-2.11304989.120833,2.722333,-2.208581,-0.43910189.160811,2.417423,-0.535607,-0.06699289.19081,1.942215,0.02887,0.66529189.220809,1.04667,0.331975,1.61412989.260787,-2.167499,2.191758,2.41803689.290786,-3.297319,2.782818,4.17562589.320754,-3.536248,2.978313,5.2592389.360762,-4.577136,0.367663,6.35654389.390731,-4.430515,-1.655768,4.17671789.420729,-3.987466,-1.428314,2.60561289.460708,-2.010683,0.73175,1.19181489.490706,-1.160133,1.424239,0.15044289.520705,0.324017,0.893519,-0.88635689.560683,1.909585,-1.120422,-3.15316289.590682,2.986536,-1.959746,-4.0424689.62065,4.235933,-1.670132,-4.30328789.660628,3.741632,-3.987652,-5.46508489.690627,3.360141,-3.269129,-3.78939889.720626,3.549892,-1.715973,-1.18978189.760604,3.785363,-1.653738,-0.86728289.790603,3.465742,-1.567545,-0.71255489.820571,2.157887,-2.120887,-0.18169389.860552,-0.023596,-0.983475,1.29390189.890521,-1.736608,1.438301,2.24741789.920519,-4.443091,2.467734,3.3768689.960497,-4.471542,3.605384,3.15410389.990496,-5.102278,2.263965,5.03751990.020495,-4.802042,0.570763,4.19198490.060473,-4.714818,-0.653928,3.3579990.090472,-2.977174,0.417642,2.1883390.12044,-1.998188,2.006035,1.54594690.160418,0.466453,1.057229,-0.1150390.190417,0.896836,-1.675266,-1.97218790.220416,2.124774,-2.701449,-3.76653190.260394,5.119072,-2.349807,-4.45669890.290392,4.033658,-2.154352,-6.52682990.320361,3.106533,-2.358899,-4.58307790.360369,3.735309,-1.279311,-2.19461890.390337,2.554538,-1.900469,-2.40956190.420336,2.299663,-0.835345,-1.45504390.460314,1.885801,-0.019817,0.67983590.490313,-0.238913,-0.155207,1.2526390.520312,-1.407817,1.019382,1.77085890.56029,-4.287801,2.083039,3.71061490.590289,-4.653713,2.686249,4.39613490.620257,-5.103492,1.74273,6.11876990.660265,-4.736354,-0.063083,3.75155890.690234,-3.466936,0.826156,3.03919590.720233,-1.604618,1.554542,2.63941990.760211,-1.620159,0.800222,0.91926890.790209,-0.336576,-0.196198,-0.13000190.820208,1.431797,-1.61536,-2.11960290.860186,3.589804,-1.388338,-3.82927790.890111,5.895852,-0.659052,-4.3211290.92011,3.159219,-2.453843,-6.45040890.960088,2.753099,-2.906287,-4.66768990.990087,2.855749,-1.552958,-2.53116591.020086,2.872325,-0.727058,-1.70222991.060064,2.749004,-0.692301,-1.43300391.090063,0.738541,-2.001411,-1.23179691.120031,-0.132808,-1.142296,-0.01311791.160039,-0.81717,1.694657,2.09533591.190008,-5.906835,1.727334,2.20116991.220006,-5.529373,3.692404,4.68359591.259984,-3.917445,4.548926,6.71093791.289983,-3.180703,1.527644,4.87024391.319982,-3.867994,-0.801108,2.92879391.35996,-3.136868,0.584375,1.22689291.389928,-1.097596,2.018189,0.83792491.419927,0.174876,1.417096,-0.17904191.459905,0.565334,-1.200633,-3.30724691.489904,0.639155,-3.124557,-4.74820691.519903,3.040759,-2.442913,-4.38154891.559881,3.609975,-3.420464,-3.57738191.589879,3.197411,-3.63456,-5.61511191.619848,2.014664,-3.744954,-2.63916991.659856,1.920332,-2.425421,-1.09437391.689825,1.760598,-0.96247,0.30891291.719823,1.339059,0.713562,1.71845491.759801,-0.201465,0.917373,2.48067591.7898,-2.651602,1.340615,2.63402391.819799,-4.961477,3.60908,3.74772991.859777,-2.320656,6.712284,6.37549691.889703,-3.239301,4.406663,4.62182391.919702,-4.534329,-1.034892,3.3630491.95968,-3.933996,-1.863291,1.14722491.989679,-2.185705,0.343518,0.43514992.019678,-1.943097,1.323543,-0.00446692.059656,-1.377891,0.707002,-1.33099892.089654,-0.049291,-1.260355,-2.72312192.119623,0.592981,-2.9979,-3.1627592.159631,4.940671,-1.716953,-3.16443392.189599,5.207934,-2.022011,-3.25003392.219598,4.576655,-4.076567,-4.79810892.259576,3.693745,-3.936566,-2.22357292.289575,3.715651,-3.38208,-0.41022692.319574,2.853909,-2.95471,0.02335692.359552,1.736041,-0.284562,1.11038392.389551,0.647568,0.737932,2.22024292.419519,-2.836254,0.33171,1.45325292.459497,-6.011293,2.426539,3.39759492.489496,-3.282024,5.675758,6.83658492.519494,-4.453114,3.931883,5.89078292.559472,-4.597096,-1.128198,2.69101392.589471,-4.197931,-1.604282,1.41555292.61944,-3.092815,0.574657,0.29764692.659448,-1.372816,2.431545,-0.33485492.689416,-0.007895,1.702922,-1.43991192.719415,0.449928,-0.298189,-3.10322492.759393,1.220317,-3.172266,-3.21505692.789392,3.386287,-2.314698,-3.73268392.819391,3.754993,-2.302328,-2.77267892.859369,3.311497,-4.644866,-4.23750592.889301,1.501921,-5.989684,-3.03126892.9193,2.30011,-4.807725,-0.92718492.959278,2.930357,-0.633977,0.32770492.989277,1.73895,-0.426733,0.99836393.019275,-0.057097,-0.556209,1.30262393.059253,-1.491437,0.737464,1.52809693.099231,-6.622479,3.132538,2.79729393.11922,-5.474977,4.84006,4.16056993.159229,-4.566294,4.340146,4.92087993.189197,-4.830025,2.131007,2.97725493.219196,-3.073809,1.291734,2.49912893.259174,-2.126008,1.362795,0.96692993.289173,-1.995683,1.472898,0.00110893.319172,-0.455296,1.213098,-0.89509593.35915,0.74941,-0.609342,-2.85828793.389118,1.782579,-2.784265,-2.85307393.419117,4.675057,-2.286248,-4.00670993.459095,3.790092,-2.876827,-3.77764993.489093,3.644783,-4.393895,-4.71590193.519092,2.288956,-4.769385,-3.29116493.55907,2.783176,-3.583952,-1.17475493.589069,2.378529,-2.792527,-0.35602593.619037,1.53154,-0.77536,0.72585293.659015,0.414903,1.26316,1.56692993.689014,-3.27112,1.05557,0.96384293.719013,-6.081253,1.804779,2.44155893.758991,-3.51693,5.886324,5.60643393.78899,-3.347647,5.425552,5.14600593.818958,-3.452142,2.271861,3.61923593.858966,-3.450974,-0.403343,2.48830293.88891,-2.400748,0.595959,1.41579493.918909,-1.670499,1.327142,1.04573893.958887,-0.110454,0.460714,-0.2033793.988885,0.685856,-0.890562,-2.69262994.018884,0.985238,-2.648043,-3.62194694.058862,2.695612,-3.132211,-3.5744794.08883,3.454739,-2.934552,-3.66762494.118829,4.098186,-3.230907,-4.06684494.158807,2.836574,-4.487206,-1.85096494.188806,1.989441,-4.633535,-1.32356994.218805,2.122458,-2.251466,-0.59225794.258783,2.479907,0.343154,1.18903194.288782,0.443108,-0.050438,1.27153394.31875,-1.138913,0.295495,1.39291494.358728,-4.13848,2.278663,3.53872194.388727,-4.691288,2.694269,4.48588394.418725,-4.949206,1.761853,4.1348294.458703,-5.076024,-0.543657,2.20502394.488702,-3.692425,0.211444,1.61249994.518671,-2.492652,1.214591,1.05860494.558679,-1.12333,1.77178,-0.21183394.588647,0.298218,1.797248,-0.78524194.628625,2.167198,-0.145655,-2.15174294.658624,2.59986,-1.637136,-3.01445494.688623,3.227765,-1.379061,-3.76547294.718591,5.009236,-0.89524,-4.62377594.7586,2.34915,-3.702057,-4.84936494.788568,1.706883,-4.143986,-2.37634294.828577,2.250044,-2.717715,-0.65454294.858545,3.277015,-0.698554,-0.20280694.888517,2.6097,-0.19154,-0.110194.918515,-0.163588,-0.96888,0.62256294.958493,-0.856379,1.697027,2.11153494.988462,-2.711322,2.514291,3.04690995.01846,-3.782285,3.169297,4.39835695.058438,-3.734541,2.092236,4.61308695.088437,-3.542883,0.278901,3.94931995.128415,-3.445832,-0.540344,2.81463595.158414,-3.178174,-0.179481,1.61150795.188413,-2.926022,0.612158,0.9737895.228391,-1.266025,0.898212,-0.3954495.258359,0.360732,-1.223607,-2.2211395.288358,1.508222,-2.636945,-4.21053395.328336,4.080735,-2.090757,-4.6683595.358335,4.285678,-2.813613,-4.64274495.388333,3.694341,-2.511712,-3.67531695.428311,3.111323,-2.840153,-1.72187695.45831,3.174551,-3.121773,-2.23212495.488279,2.554099,-2.231227,-1.5996195.528257,2.039704,-0.862775,0.47728795.558255,0.232937,-0.304851,0.86926495.588254,-1.606772,0.757416,1.59258695.628232,-4.373818,2.04733,3.74122495.658231,-3.728408,4.063904,3.49962395.688199,-5.122934,2.439577,5.46192495.728177,-5.866626,-0.086641,3.60759895.758176,-4.436094,0.892597,2.92886995.788175,-2.936741,2.389159,2.25015595.828153,-1.669674,2.268204,1.41949695.858152,0.537804,1.286578,0.50259795.888082,1.577366,-0.730083,-1.69929595.92809,2.397226,-2.057338,-4.0363395.958059,3.984721,-1.436903,-3.60070195.988057,5.302825,-1.288573,-5.12806496.028035,2.961243,-2.32089,-5.26309496.058034,1.995308,-2.350638,-2.62069596.088002,2.311076,-2.349181,-1.76804896.128011,2.379677,-1.154345,-1.26643196.157979,1.253772,-1.514082,-0.38175796.187978,-0.198209,-1.329372,0.71398596.227956,-2.400455,1.368984,1.37160896.257955,-5.268821,2.841311,3.9599896.287923,-5.056166,4.933514,5.66902896.327932,-3.998604,4.678884,5.4634796.3579,-3.291505,1.33747,3.22319996.387899,-3.632698,-1.367536,2.24692196.427877,-3.324456,-0.280646,1.00720296.457876,-2.291822,1.719547,0.80304496.487844,-0.482932,2.174868,0.49734196.527852,0.464161,-1.741848,-1.79222296.557821,0.505472,-3.864545,-3.64751896.587819,2.428473,-3.112962,-3.33633196.627797,4.886241,-3.578037,-4.7246296.657796,3.681002,-4.124112,-6.25733496.687764,3.557386,-4.477122,-2.71370996.727773,2.723929,-3.921532,-2.39751196.757741,2.554834,-1.950614,-0.78143996.78774,1.814717,0.046687,0.952896.827718,-1.104273,1.245211,1.59255196.857717,-1.844486,2.508681,2.38294196.887657,-4.303333,2.419609,3.46391296.927666,-5.082886,4.17876,5.72495796.957634,-3.10199,4.681704,6.21901996.987633,-3.668934,1.276586,3.53721697.027611,-4.440002,-1.207907,1.6987397.057609,-3.022787,0.460139,0.47518397.087578,-1.629899,2.046136,0.16119297.127586,0.053524,1.754192,-0.64382897.157555,1.316896,-0.017567,-2.17892197.187553,1.326404,-2.052903,-3.35202197.227531,3.654907,-1.74172,-3.48565797.25753,3.015413,-2.58635,-3.1525997.287498,3.750181,-4.393192,-4.6972997.327507,3.545069,-4.109953,-3.25612697.357475,2.425845,-3.510013,-0.93865897.387474,1.914419,-2.964133,-0.34896997.427452,1.942508,-1.070293,0.65858197.457451,1.48797,-0.047767,1.66252597.487419,-0.649449,-0.019429,1.45335897.527428,-4.333291,1.78597,2.74454697.557396,-4.467746,4.602898,5.17863697.587395,-2.063386,6.182524,5.34442497.627373,-3.866628,1.572485,3.54676497.657371,-4.183574,-0.681075,2.32803997.68734,-3.750591,-0.590531,1.32441997.727348,-2.40427,0.741125,0.3064597.757317,-1.853892,1.44977,-0.5051197.787315,-0.42278,0.229592,-1.90872597.827293,0.388026,-3.22815,-3.16309197.857292,2.367416,-4.006562,-3.3986497.887207,3.69234,-2.508415,-2.94892397.927216,2.872464,-4.451849,-3.18263997.957184,2.846914,-4.212394,-2.30534897.987183,3.207778,-3.885853,-1.12151598.027161,2.728584,-3.777344,-0.42099898.05716,2.867228,-2.350113,0.66409898.087128,2.829158,-0.110123,0.90568498.127137,1.038451,0.544957,1.83551698.157105,-1.953333,0.881764,1.68104498.187104,-4.281025,1.740772,2.2197998.227082,-4.693381,4.612011,5.56915698.25708,-3.846169,5.124,5.58942998.287049,-4.991563,2.199969,3.23790298.327057,-4.631029,0.045264,1.43334398.357025,-3.968683,0.569978,0.32706998.387024,-2.185973,1.545118,-0.45704998.427002,-0.913365,1.144771,-1.1245898.457001,0.099809,-0.878635,-2.01746498.486969,1.080907,-3.177269,-2.80357698.526978,3.868201,-3.017118,-2.93329298.566956,2.520913,-4.047776,-3.18371498.586945,2.491782,-4.767621,-3.18243398.626923,3.07616,-4.003576,-1.60524298.656922,2.753432,-3.66965,-0.13500598.68689,2.822151,-3.309653,0.63739498.726868,2.945734,-1.37958,1.03293798.756867,2.75638,-0.52881,1.75189498.786866,0.740487,-0.21402,2.58738798.826844,-2.119109,0.87678,1.83666898.856842,-4.423933,2.021083,3.30756198.886778,-2.659369,4.204092,5.35293198.926756,-4.159857,1.346643,3.9671598.956754,-5.074303,-1.140761,2.29268298.986753,-5.247285,-0.693327,0.27320899.026731,-2.751109,2.010519,-0.75606899.05673,-1.660566,2.520952,-1.32273799.086698,-0.33765,1.579008,-1.82969399.126676,0.980868,-1.270709,-2.87062199.156675,2.793466,-3.185271,-2.2636799.186674,4.718437,-2.362015,-3.99891699.226652,3.655267,-2.924405,-4.29708499.25662,3.405247,-2.941248,-2.6048999.286619,3.139256,-3.743887,-1.82193799.326597,2.564623,-4.292277,-1.62904799.356596,2.23725,-2.558689,-0.59272899.386595,1.768852,-1.00282,0.57903899.426573,-0.08738,-0.586569,1.39048699.456541,-1.835015,0.17046,2.06011499.48654,-3.788587,0.955989,3.18614199.526518,-4.629708,2.101976,4.0451799.556516,-4.601623,1.200459,3.96429299.586485,-4.928849,-0.779517,2.23583999.626493,-4.536608,0.257295,1.30536599.666471,-0.734482,2.84449,1.37373399.68646,-0.017665,3.189541,1.09730999.726438,0.95818,2.529126,0.10909999.756437,2.350758,0.570113,-1.26210799.786405,2.688038,-1.215633,-3.22396699.826414,3.392607,-1.378888,-4.04372399.856382,4.505369,-0.447318,-4.2563399.886346,2.951381,-0.521946,-5.02049999.926324,2.120483,-0.67131,-3.03075799.956323,1.065006,-1.980481,-2.65564199.986291,0.987897,-3.506641,-2.715262100.0263,0.514689,-2.566673,-2.320735100.056268,0.647912,-1.327369,-0.8758100.086267,-0.277427,-1.033275,0.642875100.126245,-1.998335,0.885376,2.201805100.156243,-2.928324,2.311956,3.555231100.186212,-4.978501,1.560141,4.72103100.22619,-3.918349,2.932915,5.22542100.256188,-3.797923,1.788556,3.816769100.286187,-4.216314,0.047877,3.575044100.326165,-3.717335,0.584945,1.515975100.356134,-2.338958,1.394327,0.910273100.386132,-0.435494,1.398804,0.385551100.42611,2.065858,-0.044024,-1.676203100.456109,2.546928,-1.877823,-3.296096100.486108,4.092893,-2.384049,-4.040084100.526086,4.024733,-2.827494,-5.835871100.556054,1.378391,-4.994784,-4.527108100.586053,1.228849,-4.44886,-2.177276100.626031,1.723035,-2.621367,-1.508883100.65603,2.259986,-1.769771,-1.340097100.685998,1.456876,-2.696091,-0.383639100.726007,0.07235,-1.837145,1.023488100.755975,-0.010978,0.006285,2.084299100.785974,-2.051653,1.62138,2.399262100.825952,-4.325352,3.154898,3.297465100.85595,-2.579727,4.815157,3.484434100.885904,-4.386897,3.007087,3.526114100.925912,-4.983651,0.815815,2.394874100.95588,-4.517542,1.262789,1.812941100.985879,-2.436941,2.543729,1.336353101.025857,-0.629455,2.566702,0.337354101.055856,0.708484,1.185414,-0.510935101.085824,1.503485,-1.119499,-2.15251101.125802,2.994797,-2.609697,-3.623772101.155801,4.807,-1.977056,-4.281756101.1858,2.86718,-2.532905,-4.660448101.225778,1.918124,-2.707982,-2.108788101.255746,2.750445,-2.212691,-1.085632101.285745,2.987695,-2.306058,-1.020115101.325723,2.522226,-1.657141,-0.447452101.355722,2.487657,-0.950962,0.708101.385721,1.016461,-0.649512,2.164578101.425699,-2.620344,-0.310641,1.62753101.455667,-4.912315,2.24736,2.72297101.485666,-2.795898,6.007536,6.000466101.525644,-3.70227,4.410899,5.124629101.555642,-4.57012,0.028038,3.331818101.585611,-6.30508,-1.854856,1.263771101.625619,-3.866759,0.088427,-0.316298101.655587,-1.740228,1.46411,-0.525047101.685586,-0.787085,1.006996,-1.091182101.725564,0.584523,-2.102523,-2.302195101.755563,2.528883,-4.036443,-3.260644101.785531,4.351755,-3.249924,-3.560369101.825509,4.317739,-3.223406,-3.145442101.865518,2.389412,-4.597925,-2.023659101.895441,1.309774,-5.786922,-1.239704101.92544,1.635857,-4.580505,-0.291597101.955408,3.18165,-1.412108,0.891072101.995417,2.62776,-0.336089,2.090368102.025385,-0.438505,-0.348849,2.52133102.055384,-1.166974,1.062721,2.394271102.095362,-3.764817,1.691993,3.455705102.125361,-4.642026,2.711502,4.809751102.155329,-4.18826,3.38621,4.174982102.195307,-5.351968,0.750694,1.694974102.225306,-5.492781,0.326539,-0.056265102.255304,-4.340526,1.310929,-1.268961102.295282,-1.818375,3.019579,-1.194392102.325281,-0.425877,2.990167,-0.507484102.35525,1.484633,0.548716,-0.916876102.395228,2.019097,-3.712362,-3.199443102.425226,3.678905,-3.424273,-3.883871102.455225,4.386807,-2.306115,-3.018287102.495203,3.255682,-4.206425,-3.663404102.525171,2.835551,-4.27549,-2.373081102.55517,2.254598,-4.849919,-0.879682102.595148,1.96473,-3.82201,-0.179627102.625147,2.679141,-1.042904,0.339623102.655115,1.791399,-0.517719,0.946486102.695124,-1.462022,-0.86129,1.530295102.725092,-1.775937,1.192752,2.080938102.755091,-5.050741,3.024545,4.173935102.795069,-3.677822,4.930038,4.307802102.825068,-4.38804,2.878671,3.860951102.855036,-5.224568,0.635137,2.25356102.894974,-4.805466,0.498027,0.354646102.924973,-2.737225,1.232137,-0.235116102.954971,-0.883441,1.887631,-0.746301102.99495,0.893401,0.028031,-1.67771103.024918,2.256153,-2.7745,-2.370433103.054917,4.082252,-3.464615,-3.242599103.094895,4.368708,-2.583656,-3.173978103.124893,3.693517,-3.885317,-3.843169103.154862,2.922475,-4.293042,-3.110504103.19487,1.870859,-4.117494,-1.076104103.224838,2.221745,-2.649333,-0.632497103.254837,2.455076,-1.106203,0.263471103.294815,1.675157,0.022242,1.068958103.324814,-0.191462,0.082018,1.940732103.354782,-1.97747,0.622966,2.131118103.39476,-6.110316,1.357684,2.464265103.424759,-5.314752,3.601274,4.280951103.454758,-4.071713,4.207408,3.587919103.494736,-4.383591,0.458523,1.198477103.524704,-4.905295,-0.158294,-0.029227103.554703,-3.380245,0.766478,-1.123009103.594681,-1.126454,2.027935,-1.036139103.62468,-0.134319,2.294655,-0.712965103.654679,1.548355,0.790937,-0.756907103.694657,3.245901,-2.710494,-2.127863103.724625,3.331482,-3.117845,-3.570635103.754624,3.333463,-2.777437,-3.894263103.794602,3.665259,-2.888232,-3.119799103.8246,2.928011,-3.327675,-1.83348103.854569,2.381033,-4.17585,-0.785159103.894528,2.650879,-2.467282,0.223503103.924526,3.20977,-0.548334,0.686051103.954525,1.77274,-0.76752,1.271662103.994503,-2.468348,-0.435031,1.112413104.024502,-3.731823,1.578111,2.092095104.05447,-5.198804,3.339848,5.693477104.094448,-3.85789,4.660869,5.379624104.124447,-5.09169,1.801744,3.402505104.154446,-4.757467,-0.256817,1.872575104.194424,-3.198624,1.091938,0.8309104.224392,-1.368569,2.490222,0.632159104.254391,-0.356265,2.025413,0.303622104.294369,1.062029,-1.067825,-2.20805104.324368,0.975426,-3.333851,-3.612494104.354336,3.69363,-3.478632,-3.879279104.394314,4.723499,-2.266517,-3.367119104.424313,4.386441,-3.421464,-4.95449104.454312,3.61828,-3.731391,-4.025238104.49429,2.408045,-3.365902,-1.823912104.524288,2.861445,-2.349577,-1.10549104.554257,2.749588,-0.726974,0.084066104.594235,1.02169,-0.936334,1.862693104.624233,-0.356977,-1.025956,2.656079104.654232,-2.633588,-0.07554,2.73092104.69421,-5.926854,1.618579,4.979718104.724179,-3.916626,3.728672,4.792786104.754177,-4.970584,1.733378,3.706348104.794155,-5.67046,-0.01858,0.944645104.824154,-4.57182,1.03783,0.063443104.854122,-2.592501,2.143254,-0.224602104.894073,-1.288221,2.078074,-0.228144104.924072,0.688797,0.45715,-0.949114104.954071,1.769387,-2.247976,-2.739678104.994049,3.112888,-2.54532,-3.644108105.024048,3.794821,-1.987203,-2.999258105.054016,2.744259,-3.597865,-3.814458105.093994,2.403027,-4.539878,-2.363371105.123993,1.986525,-4.612301,-0.870374105.153992,2.256723,-2.612127,